PID,Face_Condition,Block,Trial,Face_image,Target_item,Target_type,Target_colour,Congruency,Attempt,Response,Correct,RT,Rating_score
2816545,Photo,6,72,Face_6,item_1_1,Garden,blue,Incongruent,1,h,1,1001.895,3
2816555,Photo,6,64,Face_6,item_1_1,Garden,blue,Incongruent,1,h,1,1187.885,3
2816558,Schematic,6,38,Face_37,item_1_1,Garden,blue,Congruent,1,h,1,1557.155,1
2816562,Schematic,6,70,Face_37,item_1_1,Garden,blue,Congruent,1,h,1,595.85,6
2816564,Schematic,6,35,Face_37,item_1_1,Garden,blue,Incongruent,1,h,1,894,4
2816567,Schematic,6,23,Face_37,item_1_1,Garden,blue,Incongruent,1,h,1,562.3999999,7
2816569,Photo,6,3,Face_21,item_1_1,Garden,blue,Congruent,1,h,1,757,6
2816570,Schematic,6,54,Face_37,item_1_1,Garden,blue,Incongruent,1,h,1,1036.345,4
2816571,Schematic,6,38,Face_37,item_1_1,Garden,blue,Incongruent,1,h,1,543.6,7
2816572,Photo,6,24,Face_15,item_1_1,Garden,blue,Incongruent,1,h,1,577,4
2816573,Photo,6,41,Face_21,item_1_1,Garden,blue,Congruent,1,h,1,674.01,7
2816575,Schematic,6,21,Face_37,item_1_1,Garden,blue,Incongruent,1,h,1,1124.745,3
2816580,Photo,6,3,Face_21,item_1_1,Garden,blue,Congruent,1,space,0,431.885,4
2816587,Photo,6,20,Face_15,item_1_1,Garden,blue,Incongruent,1,h,1,577.5199999,7
2816604,Schematic,6,26,Face_37,item_1_1,Garden,blue,Incongruent,1,h,1,933,5
2816610,Photo,6,29,Face_15,item_1_1,Garden,blue,Incongruent,1,h,1,1646.765,6
2816616,Schematic,6,4,Face_37,item_1_1,Garden,blue,Incongruent,1,h,1,720.235,8
2816619,Schematic,6,39,Face_37,item_1_1,Garden,blue,Congruent,1,space,0,730.59,3
2816622,Schematic,6,43,Face_37,item_1_1,Garden,blue,Incongruent,1,h,1,1144.47,6
2816629,Schematic,6,65,Face_37,item_1_1,Garden,blue,Congruent,1,h,1,1077.445,4
2816631,Schematic,6,42,Face_37,item_1_1,Garden,blue,Incongruent,1,h,1,1249.95,4
2816633,Schematic,6,21,Face_37,item_1_1,Garden,blue,Congruent,1,h,1,1509,8
2816635,Photo,6,22,Face_15,item_1_1,Garden,blue,Incongruent,1,h,1,1300.565,5
2816636,Photo,6,39,Face_15,item_1_1,Garden,blue,Incongruent,1,h,1,696.16,4
2816641,Photo,6,38,Face_6,item_1_1,Garden,blue,Incongruent,1,h,1,656,8
2816644,Schematic,6,71,Face_37,item_1_1,Garden,blue,Incongruent,1,h,1,712.1,6
2816647,Photo,6,3,Face_21,item_1_1,Garden,blue,Congruent,1,h,1,874.21,7
2816648,Schematic,6,51,Face_37,item_1_1,Garden,blue,Congruent,1,h,1,680.655,2
2816649,Photo,6,9,Face_6,item_1_1,Garden,blue,Incongruent,1,h,1,694.435,7
2816656,Photo,6,31,Face_15,item_1_1,Garden,blue,Incongruent,1,h,1,1118,9
2816660,Photo,6,42,Face_21,item_1_1,Garden,blue,Congruent,1,h,1,711.75,5
2816661,Schematic,6,21,Face_37,item_1_1,Garden,blue,Incongruent,1,h,1,485,9
2816665,Schematic,6,21,Face_37,item_1_1,Garden,blue,Congruent,1,h,1,713.2,5
2816673,Photo,6,8,Face_6,item_1_1,Garden,blue,Incongruent,1,h,1,738,5
2816681,Photo,6,19,Face_21,item_1_1,Garden,blue,Congruent,1,h,1,964.9399999,3
2816687,Schematic,6,2,Face_37,item_1_1,Garden,blue,Incongruent,1,h,1,701,2
2816698,Photo,6,7,Face_21,item_1_1,Garden,blue,Congruent,1,h,1,689.235,6
2816709,Schematic,6,69,Face_37,item_1_1,Garden,blue,Congruent,1,h,1,523,4
2816801,Schematic,6,65,Face_37,item_1_1,Garden,blue,Congruent,1,h,1,594.015,7
2816804,Schematic,6,25,Face_37,item_1_1,Garden,blue,Incongruent,1,h,1,1367,2
2816805,Schematic,6,71,Face_37,item_1_1,Garden,blue,Congruent,1,h,1,1096.76,5
2816822,Photo,6,18,Face_21,item_1_1,Garden,blue,Congruent,1,h,1,538.485,6
2816866,Photo,6,4,Face_6,item_1_1,Garden,blue,Incongruent,1,h,1,1464.175,4
2817018,Schematic,6,3,Face_37,item_1_1,Garden,blue,Congruent,1,h,1,763,3
2816545,Photo,6,70,Face_1,item_1_2,Garden,green,Incongruent,1,h,1,704.785,3
2816555,Photo,6,34,Face_1,item_1_2,Garden,green,Incongruent,1,h,1,775.1,6
2816558,Schematic,6,16,Face_37,item_1_2,Garden,green,Incongruent,1,h,1,1057.415,1
2816562,Schematic,6,64,Face_37,item_1_2,Garden,green,Congruent,1,h,1,673.89,5
2816564,Schematic,6,37,Face_37,item_1_2,Garden,green,Incongruent,1,h,1,742,8
2816567,Schematic,6,39,Face_37,item_1_2,Garden,green,Congruent,1,h,1,1092.17,8
2816569,Photo,6,66,Face_5,item_1_2,Garden,green,Congruent,1,h,1,680.605,3
2816570,Schematic,6,22,Face_37,item_1_2,Garden,green,Congruent,1,h,1,1333.355,3
2816571,Schematic,6,22,Face_37,item_1_2,Garden,green,Congruent,1,h,1,735.91,9
2816572,Photo,6,34,Face_36,item_1_2,Garden,green,Congruent,1,h,1,571,4
2816573,Photo,6,56,Face_5,item_1_2,Garden,green,Congruent,1,h,1,2036.25,1
2816575,Schematic,6,18,Face_37,item_1_2,Garden,green,Incongruent,1,h,1,1900.79,7
2816580,Photo,6,23,Face_5,item_1_2,Garden,green,Congruent,1,h,1,554.445,5
2816587,Photo,6,66,Face_36,item_1_2,Garden,green,Congruent,1,h,1,659.495,4
2816604,Schematic,6,35,Face_37,item_1_2,Garden,green,Congruent,1,h,1,934,6
2816610,Photo,6,9,Face_36,item_1_2,Garden,green,Congruent,1,h,1,726.01,7
2816616,Schematic,6,30,Face_37,item_1_2,Garden,green,Congruent,1,h,1,657.695,3
2816619,Schematic,6,7,Face_37,item_1_2,Garden,green,Incongruent,1,h,1,748.905,5
2816622,Schematic,6,15,Face_37,item_1_2,Garden,green,Incongruent,1,h,1,855.0399999,3
2816629,Schematic,6,22,Face_37,item_1_2,Garden,green,Congruent,1,h,1,639.615,5
2816631,Schematic,6,12,Face_37,item_1_2,Garden,green,Incongruent,1,h,1,1016.09,6
2816633,Schematic,6,26,Face_37,item_1_2,Garden,green,Incongruent,1,h,1,1538,3
2816635,Photo,6,26,Face_36,item_1_2,Garden,green,Congruent,1,h,1,1498.325,4
2816636,Photo,6,42,Face_36,item_1_2,Garden,green,Congruent,1,h,1,617.39,4
2816641,Photo,6,69,Face_1,item_1_2,Garden,green,Incongruent,1,h,1,722,7
2816644,Schematic,6,17,Face_37,item_1_2,Garden,green,Incongruent,1,h,1,654.02,9
2816647,Photo,6,44,Face_5,item_1_2,Garden,green,Congruent,1,h,1,2087.84,8
2816648,Schematic,6,25,Face_37,item_1_2,Garden,green,Incongruent,1,h,1,913.775,3
2816649,Photo,6,51,Face_1,item_1_2,Garden,green,Incongruent,1,h,1,682.605,3
2816656,Photo,6,49,Face_36,item_1_2,Garden,green,Congruent,1,h,1,887,5
2816660,Photo,6,53,Face_5,item_1_2,Garden,green,Congruent,1,h,1,511.63,3
2816661,Schematic,6,51,Face_37,item_1_2,Garden,green,Congruent,1,h,1,872,3
2816665,Schematic,6,2,Face_37,item_1_2,Garden,green,Congruent,1,h,1,667.105,4
2816673,Photo,6,3,Face_1,item_1_2,Garden,green,Incongruent,1,h,1,812,5
2816681,Photo,6,8,Face_5,item_1_2,Garden,green,Congruent,1,h,1,823.1450003,7
2816687,Schematic,6,28,Face_37,item_1_2,Garden,green,Incongruent,1,space,0,829,3
2816698,Photo,6,2,Face_5,item_1_2,Garden,green,Congruent,1,h,1,957.25,6
2816709,Schematic,6,8,Face_37,item_1_2,Garden,green,Congruent,1,h,1,691,7
2816801,Schematic,6,72,Face_37,item_1_2,Garden,green,Congruent,1,h,1,546.62,6
2816804,Schematic,6,38,Face_37,item_1_2,Garden,green,Congruent,1,h,1,796,2
2816805,Schematic,6,33,Face_37,item_1_2,Garden,green,Congruent,1,h,1,636.445,5
2816822,Photo,6,23,Face_5,item_1_2,Garden,green,Congruent,1,h,1,509.305,4
2816866,Photo,6,39,Face_1,item_1_2,Garden,green,Incongruent,1,h,1,1545.035,6
2817018,Schematic,6,37,Face_37,item_1_2,Garden,green,Congruent,1,h,1,907,6
2816557,Photo,6,38,Face_28,item_1_3,Garden,red,Incongruent,1,h,1,588.36,2
2816574,Photo,6,43,Face_28,item_1_3,Garden,red,Incongruent,1,h,1,703.83,9
2816632,Photo,6,43,Face_28,item_1_3,Garden,red,Incongruent,1,h,1,791.79,5
2816640,Photo,6,46,Face_28,item_1_3,Garden,red,Incongruent,1,h,1,589.705,6
2816659,Photo,6,54,Face_28,item_1_3,Garden,red,Incongruent,1,h,1,1524.63,5
2816701,Photo,6,12,Face_28,item_1_3,Garden,red,Incongruent,1,h,1,881.12,5
2816799,Photo,6,67,Face_28,item_1_3,Garden,red,Incongruent,1,h,1,1020.14,4
2816557,Photo,6,12,Face_3,item_1_4,Garden,yellow,Incongruent,1,h,1,1021.65,3
2816574,Photo,6,31,Face_3,item_1_4,Garden,yellow,Incongruent,1,h,1,767.66,5
2816632,Photo,6,63,Face_3,item_1_4,Garden,yellow,Incongruent,1,h,1,817.705,4
2816640,Photo,6,21,Face_3,item_1_4,Garden,yellow,Incongruent,1,h,1,811.555,4
2816701,Photo,6,21,Face_3,item_1_4,Garden,yellow,Incongruent,1,h,1,661.595,4
2816799,Photo,6,58,Face_3,item_1_4,Garden,yellow,Incongruent,1,h,1,831.49,6
2816557,Photo,6,15,Face_34,item_10_1,Garden,blue,Congruent,1,h,1,746.425,5
2816574,Photo,6,8,Face_34,item_10_1,Garden,blue,Congruent,1,h,1,669.985,6
2816632,Photo,6,48,Face_34,item_10_1,Garden,blue,Congruent,1,h,1,860.22,2
2816640,Photo,6,56,Face_34,item_10_1,Garden,blue,Congruent,1,h,1,616.835,6
2816659,Photo,6,38,Face_34,item_10_1,Garden,blue,Congruent,1,h,1,947.465,6
2816701,Photo,6,2,Face_34,item_10_1,Garden,blue,Congruent,1,h,1,1652.395,9
2816799,Photo,6,12,Face_34,item_10_1,Garden,blue,Congruent,1,h,1,749.515,6
2816545,Photo,6,24,Face_4,item_10_2,Garden,green,Incongruent,1,h,1,506.79,5
2816555,Photo,6,36,Face_4,item_10_2,Garden,green,Incongruent,1,h,1,836.14,7
2816558,Schematic,6,5,Face_37,item_10_2,Garden,green,Incongruent,1,h,1,980.53,1
2816562,Schematic,6,29,Face_37,item_10_2,Garden,green,Incongruent,1,h,1,574.71,6
2816564,Schematic,6,34,Face_37,item_10_2,Garden,green,Congruent,1,h,1,927,3
2816567,Schematic,6,63,Face_37,item_10_2,Garden,green,Congruent,1,h,1,730.5899999,6
2816569,Photo,6,38,Face_10,item_10_2,Garden,green,Congruent,1,h,1,814.745,4
2816570,Schematic,6,7,Face_37,item_10_2,Garden,green,Congruent,1,h,1,1232.145,7
2816571,Schematic,6,18,Face_37,item_10_2,Garden,green,Congruent,1,h,1,1081.27,9
2816572,Photo,6,44,Face_28,item_10_2,Garden,green,Congruent,1,space,0,605,4
2816573,Photo,6,43,Face_10,item_10_2,Garden,green,Congruent,1,h,1,1271.855,6
2816575,Schematic,6,55,Face_37,item_10_2,Garden,green,Congruent,1,h,1,519.63,8
2816580,Photo,6,43,Face_10,item_10_2,Garden,green,Congruent,1,h,1,634.73,3
2816604,Schematic,6,19,Face_37,item_10_2,Garden,green,Congruent,1,h,1,1930,5
2816610,Photo,6,4,Face_28,item_10_2,Garden,green,Congruent,1,h,1,1063.885,3
2816616,Schematic,6,37,Face_37,item_10_2,Garden,green,Congruent,1,space,0,549.29,4
2816619,Schematic,6,27,Face_37,item_10_2,Garden,green,Incongruent,1,h,1,859.735,4
2816622,Schematic,6,7,Face_37,item_10_2,Garden,green,Congruent,1,h,1,1359.05,3
2816629,Schematic,6,7,Face_37,item_10_2,Garden,green,Incongruent,1,h,1,633.57,7
2816631,Schematic,6,27,Face_37,item_10_2,Garden,green,Congruent,1,h,1,792.985,6
2816633,Schematic,6,2,Face_37,item_10_2,Garden,green,Incongruent,1,h,1,1002,4
2816635,Photo,6,5,Face_28,item_10_2,Garden,green,Congruent,1,h,1,948.5149999,2
2816636,Photo,6,53,Face_28,item_10_2,Garden,green,Congruent,1,h,1,1295.615,6
2816641,Photo,6,5,Face_4,item_10_2,Garden,green,Incongruent,1,h,1,1013,6
2816644,Schematic,6,52,Face_37,item_10_2,Garden,green,Congruent,1,h,1,640.325,7
2816647,Photo,6,29,Face_10,item_10_2,Garden,green,Congruent,1,h,1,1036.41,9
2816648,Schematic,6,11,Face_37,item_10_2,Garden,green,Incongruent,1,h,1,970.67,5
2816649,Photo,6,4,Face_4,item_10_2,Garden,green,Incongruent,1,h,1,592.375,4
2816656,Photo,6,10,Face_28,item_10_2,Garden,green,Congruent,1,h,1,1112,9
2816660,Photo,6,10,Face_10,item_10_2,Garden,green,Congruent,1,h,1,563.46,7
2816661,Schematic,6,44,Face_37,item_10_2,Garden,green,Congruent,1,h,1,770,4
2816665,Schematic,6,45,Face_37,item_10_2,Garden,green,Incongruent,1,h,1,899.51,3
2816673,Photo,6,56,Face_4,item_10_2,Garden,green,Incongruent,1,h,1,905,4
2816681,Photo,6,35,Face_10,item_10_2,Garden,green,Congruent,1,h,1,361.9399997,7
2816687,Schematic,6,48,Face_37,item_10_2,Garden,green,Congruent,1,h,1,1968,3
2816698,Photo,6,9,Face_10,item_10_2,Garden,green,Congruent,1,h,1,659.03,6
2816709,Schematic,6,3,Face_37,item_10_2,Garden,green,Incongruent,1,h,1,630,6
2816801,Schematic,6,24,Face_37,item_10_2,Garden,green,Incongruent,1,h,1,652.58,8
2816804,Schematic,6,34,Face_37,item_10_2,Garden,green,Congruent,1,h,1,817,2
2816805,Schematic,6,34,Face_37,item_10_2,Garden,green,Incongruent,1,space,0,834.575,4
2816822,Photo,6,57,Face_10,item_10_2,Garden,green,Congruent,1,h,1,724.025,4
2816866,Photo,6,11,Face_4,item_10_2,Garden,green,Incongruent,1,h,1,1725.44,6
2817018,Schematic,6,68,Face_37,item_10_2,Garden,green,Incongruent,1,h,1,1132,3
2816545,Photo,6,54,Face_18,item_10_3,Garden,red,Congruent,1,h,1,595.73,3
2816555,Photo,6,65,Face_18,item_10_3,Garden,red,Congruent,1,h,1,1013.095,8
2816558,Schematic,6,59,Face_37,item_10_3,Garden,red,Congruent,1,h,1,1508.195,1
2816562,Schematic,6,16,Face_37,item_10_3,Garden,red,Incongruent,1,space,0,532.53,8
2816564,Schematic,6,10,Face_37,item_10_3,Garden,red,Incongruent,1,h,1,900,4
2816567,Schematic,6,10,Face_37,item_10_3,Garden,red,Congruent,1,h,1,719.27,2
2816569,Photo,6,26,Face_26,item_10_3,Garden,red,Incongruent,1,h,1,745.195,7
2816570,Schematic,6,61,Face_37,item_10_3,Garden,red,Congruent,1,h,1,740.705,4
2816571,Schematic,6,50,Face_37,item_10_3,Garden,red,Congruent,1,h,1,677.8900002,9
2816572,Photo,6,53,Face_11,item_10_3,Garden,red,Congruent,1,h,1,772,
2816573,Photo,6,2,Face_26,item_10_3,Garden,red,Incongruent,1,h,1,1008.75,6
2816575,Schematic,6,19,Face_37,item_10_3,Garden,red,Incongruent,1,h,1,1053.54,3
2816580,Photo,6,54,Face_26,item_10_3,Garden,red,Incongruent,1,space,0,484.34,6
2816587,Photo,6,58,Face_11,item_10_3,Garden,red,Congruent,1,h,1,636.1649999,5
2816604,Schematic,6,46,Face_37,item_10_3,Garden,red,Congruent,1,h,1,1168,6
2816610,Photo,6,51,Face_11,item_10_3,Garden,red,Congruent,1,h,1,1554.01,6
2816616,Schematic,6,9,Face_37,item_10_3,Garden,red,Congruent,1,h,1,1078.51,8
2816619,Schematic,6,44,Face_37,item_10_3,Garden,red,Congruent,1,h,1,715.545,3
2816622,Schematic,6,68,Face_37,item_10_3,Garden,red,Incongruent,1,h,1,1154.72,2
2816629,Schematic,6,19,Face_37,item_10_3,Garden,red,Incongruent,1,h,1,422.48,6
2816631,Schematic,6,62,Face_37,item_10_3,Garden,red,Incongruent,1,h,1,1137.37,4
2816635,Photo,6,11,Face_11,item_10_3,Garden,red,Congruent,1,h,1,701.3600001,2
2816636,Photo,6,49,Face_11,item_10_3,Garden,red,Congruent,1,h,1,1085.67,6
2816641,Photo,6,61,Face_18,item_10_3,Garden,red,Congruent,1,h,1,795,7
2816644,Schematic,6,26,Face_37,item_10_3,Garden,red,Incongruent,1,h,1,722.94,1
2816647,Photo,6,57,Face_26,item_10_3,Garden,red,Incongruent,1,h,1,1004.45,9
2816648,Schematic,6,20,Face_37,item_10_3,Garden,red,Congruent,1,h,1,1078.375,3
2816649,Photo,6,6,Face_18,item_10_3,Garden,red,Congruent,1,h,1,581.815,4
2816656,Photo,6,30,Face_11,item_10_3,Garden,red,Congruent,1,space,0,1154,5
2816660,Photo,6,4,Face_26,item_10_3,Garden,red,Incongruent,1,h,1,602.975,6
2816661,Schematic,6,55,Face_37,item_10_3,Garden,red,Congruent,1,h,1,622,9
2816665,Schematic,6,1,Face_37,item_10_3,Garden,red,Incongruent,1,h,1,832.66,4
2816673,Photo,6,34,Face_18,item_10_3,Garden,red,Congruent,1,h,1,666,5
2816681,Photo,6,53,Face_26,item_10_3,Garden,red,Incongruent,1,h,1,392.3749998,9
2816687,Schematic,6,31,Face_37,item_10_3,Garden,red,Incongruent,1,h,1,1225,3
2816698,Photo,6,66,Face_26,item_10_3,Garden,red,Incongruent,1,h,1,777.56,6
2816709,Schematic,6,39,Face_37,item_10_3,Garden,red,Incongruent,1,h,1,581,5
2816801,Schematic,6,30,Face_37,item_10_3,Garden,red,Incongruent,1,h,1,605.81,6
2816804,Schematic,6,64,Face_37,item_10_3,Garden,red,Congruent,1,h,1,844,6
2816805,Schematic,6,10,Face_37,item_10_3,Garden,red,Incongruent,1,h,1,604.36,4
2816822,Photo,6,4,Face_26,item_10_3,Garden,red,Incongruent,1,h,1,824.13,7
2816866,Photo,6,72,Face_18,item_10_3,Garden,red,Congruent,1,h,1,1367.69,3
2817018,Schematic,6,41,Face_37,item_10_3,Garden,red,Incongruent,1,space,0,471,3
2816557,Photo,6,32,Face_2,item_10_4,Garden,yellow,Congruent,1,h,1,620.755,8
2816574,Photo,6,19,Face_2,item_10_4,Garden,yellow,Congruent,1,h,1,541.91,5
2816632,Photo,6,41,Face_2,item_10_4,Garden,yellow,Congruent,1,h,1,1002.9,4
2816640,Photo,6,42,Face_2,item_10_4,Garden,yellow,Congruent,1,h,1,668.375,3
2816659,Photo,6,64,Face_2,item_10_4,Garden,yellow,Congruent,1,h,1,927.7949999,5
2816701,Photo,6,32,Face_2,item_10_4,Garden,yellow,Congruent,1,h,1,878.57,6
2816799,Photo,6,6,Face_2,item_10_4,Garden,yellow,Congruent,1,h,1,810.2950001,4
2816557,Photo,6,34,Face_35,item_11_1,Garden,blue,Congruent,1,h,1,643.775,2
2816574,Photo,6,2,Face_35,item_11_1,Garden,blue,Congruent,1,h,1,602.745,6
2816632,Photo,6,16,Face_35,item_11_1,Garden,blue,Congruent,1,h,1,781.535,6
2816640,Photo,6,11,Face_35,item_11_1,Garden,blue,Congruent,1,h,1,626.01,3
2816659,Photo,6,23,Face_35,item_11_1,Garden,blue,Congruent,1,h,1,2115.425,5
2816701,Photo,6,1,Face_35,item_11_1,Garden,blue,Congruent,1,h,1,1811.565,5
2816799,Photo,6,15,Face_35,item_11_1,Garden,blue,Congruent,1,h,1,708.92,6
2816555,Photo,6,33,Face_16,item_11_2,Garden,green,Incongruent,1,h,1,1243.58,4
2816558,Schematic,6,19,Face_37,item_11_2,Garden,green,Congruent,1,h,1,859.775,1
2816562,Schematic,6,56,Face_37,item_11_2,Garden,green,Incongruent,1,h,1,643.5,4
2816564,Schematic,6,48,Face_37,item_11_2,Garden,green,Congruent,1,h,1,752,6
2816567,Schematic,6,70,Face_37,item_11_2,Garden,green,Congruent,1,h,1,999.165,2
2816569,Photo,6,37,Face_7,item_11_2,Garden,green,Incongruent,1,h,1,925.995,5
2816570,Schematic,6,47,Face_37,item_11_2,Garden,green,Congruent,1,h,1,876.3,3
2816571,Schematic,6,71,Face_37,item_11_2,Garden,green,Congruent,1,h,1,559.26,2
2816572,Photo,6,32,Face_32,item_11_2,Garden,green,Congruent,1,h,1,528,4
2816573,Photo,6,25,Face_7,item_11_2,Garden,green,Incongruent,1,h,1,1227.675,1
2816575,Schematic,6,8,Face_37,item_11_2,Garden,green,Congruent,1,h,1,789.625,3
2816580,Photo,6,44,Face_7,item_11_2,Garden,green,Incongruent,1,h,1,727.4300001,1
2816587,Photo,6,57,Face_32,item_11_2,Garden,green,Congruent,1,h,1,576.075,4
2816604,Schematic,6,38,Face_37,item_11_2,Garden,green,Congruent,1,h,1,937,3
2816610,Photo,6,39,Face_32,item_11_2,Garden,green,Congruent,1,h,1,977.18,5
2816616,Schematic,6,22,Face_37,item_11_2,Garden,green,Congruent,1,h,1,743.155,3
2816619,Schematic,6,6,Face_37,item_11_2,Garden,green,Congruent,1,space,0,769.39,6
2816622,Schematic,6,51,Face_37,item_11_2,Garden,green,Congruent,1,h,1,1725.89,3
2816629,Schematic,6,3,Face_37,item_11_2,Garden,green,Incongruent,1,h,1,1037.19,5
2816631,Schematic,6,40,Face_37,item_11_2,Garden,green,Congruent,1,h,1,925.495,6
2816633,Schematic,6,22,Face_37,item_11_2,Garden,green,Congruent,1,h,1,1246,9
2816635,Photo,6,54,Face_32,item_11_2,Garden,green,Congruent,1,h,1,1221.79,3
2816636,Photo,6,38,Face_32,item_11_2,Garden,green,Congruent,1,h,1,1194.56,4
2816641,Photo,6,20,Face_16,item_11_2,Garden,green,Incongruent,1,h,1,608,7
2816644,Schematic,6,45,Face_37,item_11_2,Garden,green,Congruent,1,h,1,548.37,7
2816647,Photo,6,68,Face_7,item_11_2,Garden,green,Incongruent,1,h,1,1019.865,8
2816648,Schematic,6,48,Face_37,item_11_2,Garden,green,Congruent,1,h,1,896.225,2
2816649,Photo,6,31,Face_16,item_11_2,Garden,green,Incongruent,1,h,1,578.96,2
2816656,Photo,6,14,Face_32,item_11_2,Garden,green,Congruent,1,h,1,1732,7
2816660,Photo,6,7,Face_7,item_11_2,Garden,green,Incongruent,1,h,1,589.74,8
2816661,Schematic,6,20,Face_37,item_11_2,Garden,green,Congruent,1,h,1,1213,9
2816665,Schematic,6,26,Face_37,item_11_2,Garden,green,Incongruent,1,h,1,841.235,4
2816673,Photo,6,24,Face_16,item_11_2,Garden,green,Incongruent,1,h,1,678,4
2816681,Photo,6,28,Face_7,item_11_2,Garden,green,Incongruent,1,h,1,1334.26,3
2816687,Schematic,6,35,Face_37,item_11_2,Garden,green,Congruent,1,h,1,726,1
2816698,Photo,6,38,Face_7,item_11_2,Garden,green,Incongruent,1,h,1,997.64,2
2816709,Schematic,6,14,Face_37,item_11_2,Garden,green,Incongruent,1,h,1,671,4
2816801,Schematic,6,70,Face_37,item_11_2,Garden,green,Incongruent,1,h,1,574.49,8
2816804,Schematic,6,70,Face_37,item_11_2,Garden,green,Congruent,1,h,1,616,3
2816805,Schematic,6,57,Face_37,item_11_2,Garden,green,Incongruent,1,h,1,621.9,3
2816822,Photo,6,14,Face_7,item_11_2,Garden,green,Incongruent,1,h,1,504,5
2816866,Photo,6,44,Face_16,item_11_2,Garden,green,Incongruent,1,h,1,696.43,3
2817018,Schematic,6,49,Face_37,item_11_2,Garden,green,Incongruent,1,h,1,541,2
2816545,Photo,6,32,Face_35,item_11_3,Garden,red,Incongruent,1,h,1,664.9,5
2816555,Photo,6,20,Face_35,item_11_3,Garden,red,Incongruent,1,h,1,828.08,5
2816558,Schematic,6,14,Face_37,item_11_3,Garden,red,Incongruent,1,h,1,1657.46,1
2816562,Schematic,6,25,Face_37,item_11_3,Garden,red,Incongruent,1,space,0,517.33,5
2816564,Schematic,6,13,Face_37,item_11_3,Garden,red,Congruent,1,space,0,661,4
2816567,Schematic,6,57,Face_37,item_11_3,Garden,red,Incongruent,1,h,1,557.965,7
2816569,Photo,6,56,Face_8,item_11_3,Garden,red,Congruent,1,h,1,827.5,6
2816570,Schematic,6,10,Face_37,item_11_3,Garden,red,Incongruent,1,h,1,907.76,3
2816571,Schematic,6,57,Face_37,item_11_3,Garden,red,Incongruent,1,h,1,511.095,2
2816572,Photo,6,65,Face_34,item_11_3,Garden,red,Incongruent,1,h,1,1009,7
2816573,Photo,6,29,Face_8,item_11_3,Garden,red,Congruent,1,h,1,1691.525,3
2816575,Schematic,6,3,Face_37,item_11_3,Garden,red,Congruent,1,h,1,817.155,4
2816580,Photo,6,64,Face_8,item_11_3,Garden,red,Congruent,1,h,1,499.21,5
2816587,Photo,6,19,Face_34,item_11_3,Garden,red,Incongruent,1,h,1,629.295,9
2816604,Schematic,6,65,Face_37,item_11_3,Garden,red,Incongruent,1,h,1,1097,5
2816610,Photo,6,61,Face_34,item_11_3,Garden,red,Incongruent,1,h,1,711.79,6
2816616,Schematic,6,21,Face_37,item_11_3,Garden,red,Incongruent,1,h,1,868.135,3
2816619,Schematic,6,50,Face_37,item_11_3,Garden,red,Incongruent,1,h,1,603.5049999,5
2816622,Schematic,6,1,Face_37,item_11_3,Garden,red,Congruent,1,h,1,1047.81,7
2816629,Schematic,6,50,Face_37,item_11_3,Garden,red,Incongruent,1,h,1,861.625,6
2816631,Schematic,6,38,Face_37,item_11_3,Garden,red,Congruent,1,space,0,909.905,5
2816633,Schematic,6,48,Face_37,item_11_3,Garden,red,Incongruent,1,h,1,1389,9
2816635,Photo,6,46,Face_34,item_11_3,Garden,red,Incongruent,1,h,1,718.31,2
2816636,Photo,6,7,Face_34,item_11_3,Garden,red,Incongruent,1,h,1,637.635,5
2816641,Photo,6,9,Face_35,item_11_3,Garden,red,Incongruent,1,h,1,727,9
2816644,Schematic,6,68,Face_37,item_11_3,Garden,red,Congruent,1,h,1,540.335,6
2816647,Photo,6,65,Face_8,item_11_3,Garden,red,Congruent,1,h,1,748.69,8
2816648,Schematic,6,72,Face_37,item_11_3,Garden,red,Incongruent,1,h,1,972.93,2
2816649,Photo,6,22,Face_35,item_11_3,Garden,red,Incongruent,1,h,1,630.855,7
2816656,Photo,6,25,Face_34,item_11_3,Garden,red,Incongruent,1,h,1,977,9
2816660,Photo,6,40,Face_8,item_11_3,Garden,red,Congruent,1,h,1,548.65,4
2816661,Schematic,6,8,Face_37,item_11_3,Garden,red,Incongruent,1,h,1,1354,9
2816665,Schematic,6,71,Face_37,item_11_3,Garden,red,Incongruent,1,h,1,890.38,4
2816673,Photo,6,60,Face_35,item_11_3,Garden,red,Incongruent,1,space,0,614,6
2816681,Photo,6,31,Face_8,item_11_3,Garden,red,Congruent,1,h,1,972.1849998,3
2816687,Schematic,6,56,Face_37,item_11_3,Garden,red,Congruent,1,h,1,1601,4
2816698,Photo,6,47,Face_8,item_11_3,Garden,red,Congruent,1,h,1,1092.435,5
2816709,Schematic,6,62,Face_37,item_11_3,Garden,red,Incongruent,1,h,1,653,6
2816801,Schematic,6,38,Face_37,item_11_3,Garden,red,Incongruent,1,h,1,682.94,7
2816804,Schematic,6,32,Face_37,item_11_3,Garden,red,Incongruent,1,h,1,761,2
2816805,Schematic,6,59,Face_37,item_11_3,Garden,red,Incongruent,1,h,1,616.795,4
2816822,Photo,6,27,Face_8,item_11_3,Garden,red,Congruent,1,h,1,589.565,4
2816866,Photo,6,43,Face_35,item_11_3,Garden,red,Incongruent,1,h,1,936.87,5
2817018,Schematic,6,60,Face_37,item_11_3,Garden,red,Incongruent,1,h,1,840,7
2816557,Photo,6,39,Face_8,item_11_4,Garden,yellow,Congruent,1,h,1,653.085,4
2816574,Photo,6,63,Face_8,item_11_4,Garden,yellow,Congruent,1,h,1,872.72,3
2816632,Photo,6,60,Face_8,item_11_4,Garden,yellow,Congruent,1,h,1,728.71,3
2816640,Photo,6,39,Face_8,item_11_4,Garden,yellow,Congruent,1,h,1,455.34,4
2816659,Photo,6,1,Face_8,item_11_4,Garden,yellow,Congruent,1,h,1,650.805,6
2816701,Photo,6,38,Face_8,item_11_4,Garden,yellow,Congruent,1,h,1,772.41,8
2816799,Photo,6,11,Face_8,item_11_4,Garden,yellow,Congruent,1,h,1,659.0699999,4
2816557,Photo,6,47,Face_4,item_12_1,Garden,blue,Incongruent,1,h,1,636.39,6
2816574,Photo,6,70,Face_4,item_12_1,Garden,blue,Incongruent,1,h,1,874.475,4
2816632,Photo,6,37,Face_4,item_12_1,Garden,blue,Incongruent,1,h,1,811.605,4
2816640,Photo,6,61,Face_4,item_12_1,Garden,blue,Incongruent,1,h,1,709.71,6
2816659,Photo,6,51,Face_4,item_12_1,Garden,blue,Incongruent,1,h,1,1258.815,5
2816701,Photo,6,43,Face_4,item_12_1,Garden,blue,Incongruent,1,h,1,783.645,4
2816799,Photo,6,7,Face_4,item_12_1,Garden,blue,Incongruent,1,h,1,1265.985,2
2816545,Photo,6,58,Face_10,item_12_2,Garden,green,Congruent,1,h,1,1358.705,7
2816555,Photo,6,50,Face_10,item_12_2,Garden,green,Congruent,1,h,1,619.69,6
2816558,Schematic,6,4,Face_37,item_12_2,Garden,green,Congruent,1,h,1,731.365,3
2816562,Schematic,6,66,Face_37,item_12_2,Garden,green,Incongruent,1,h,1,768.83,4
2816564,Schematic,6,16,Face_37,item_12_2,Garden,green,Congruent,1,h,1,640,4
2816567,Schematic,6,29,Face_37,item_12_2,Garden,green,Congruent,1,h,1,717.975,6
2816569,Photo,6,6,Face_28,item_12_2,Garden,green,Congruent,1,h,1,1499.885,2
2816570,Schematic,6,63,Face_37,item_12_2,Garden,green,Congruent,1,h,1,1202.29,4
2816571,Schematic,6,35,Face_37,item_12_2,Garden,green,Congruent,1,h,1,564.6499998,9
2816572,Photo,6,14,Face_27,item_12_2,Garden,green,Congruent,1,h,1,1027,5
2816573,Photo,6,6,Face_28,item_12_2,Garden,green,Congruent,1,h,1,809.54,7
2816575,Schematic,6,66,Face_37,item_12_2,Garden,green,Congruent,1,h,1,1543.91,6
2816580,Photo,6,16,Face_28,item_12_2,Garden,green,Congruent,1,h,1,521.785,7
2816587,Photo,6,44,Face_27,item_12_2,Garden,green,Congruent,1,h,1,661.085,8
2816604,Schematic,6,36,Face_37,item_12_2,Garden,green,Congruent,1,h,1,808,6
2816610,Photo,6,20,Face_27,item_12_2,Garden,green,Congruent,1,h,1,1289.515,8
2816616,Schematic,6,2,Face_37,item_12_2,Garden,green,Congruent,1,h,1,656.595,7
2816619,Schematic,6,13,Face_37,item_12_2,Garden,green,Congruent,1,space,0,857.405,5
2816622,Schematic,6,5,Face_37,item_12_2,Garden,green,Congruent,1,h,1,806.96,7
2816629,Schematic,6,4,Face_37,item_12_2,Garden,green,Incongruent,1,h,1,616.485,5
2816631,Schematic,6,41,Face_37,item_12_2,Garden,green,Congruent,1,h,1,775.47,4
2816633,Schematic,6,71,Face_37,item_12_2,Garden,green,Congruent,1,h,1,1216,3
2816635,Photo,6,4,Face_27,item_12_2,Garden,green,Congruent,1,h,1,796.4850001,7
2816636,Photo,6,57,Face_27,item_12_2,Garden,green,Congruent,1,h,1,1486.03,4
2816641,Photo,6,35,Face_10,item_12_2,Garden,green,Congruent,1,h,1,669,6
2816644,Schematic,6,66,Face_37,item_12_2,Garden,green,Congruent,1,h,1,619.58,2
2816647,Photo,6,45,Face_28,item_12_2,Garden,green,Congruent,1,h,1,941.78,3
2816648,Schematic,6,42,Face_37,item_12_2,Garden,green,Congruent,1,h,1,690.165,7
2816649,Photo,6,63,Face_10,item_12_2,Garden,green,Congruent,1,h,1,710.66,3
2816656,Photo,6,48,Face_27,item_12_2,Garden,green,Congruent,1,h,1,645,8
2816660,Photo,6,11,Face_28,item_12_2,Garden,green,Congruent,1,h,1,502.85,4
2816661,Schematic,6,66,Face_37,item_12_2,Garden,green,Congruent,1,h,1,894,4
2816665,Schematic,6,17,Face_37,item_12_2,Garden,green,Incongruent,1,h,1,640.335,4
2816673,Photo,6,36,Face_10,item_12_2,Garden,green,Congruent,1,h,1,632,5
2816681,Photo,6,38,Face_28,item_12_2,Garden,green,Congruent,1,h,1,878.9250003,3
2816687,Schematic,6,24,Face_37,item_12_2,Garden,green,Congruent,1,h,1,710,3
2816698,Photo,6,35,Face_28,item_12_2,Garden,green,Congruent,1,h,1,1303.95,5
2816709,Schematic,6,32,Face_37,item_12_2,Garden,green,Incongruent,1,space,0,514,7
2816801,Schematic,6,67,Face_37,item_12_2,Garden,green,Incongruent,1,h,1,533.67,2
2816804,Schematic,6,72,Face_37,item_12_2,Garden,green,Congruent,1,h,1,662,8
2816805,Schematic,6,21,Face_37,item_12_2,Garden,green,Incongruent,1,h,1,528.78,5
2816822,Photo,6,59,Face_28,item_12_2,Garden,green,Congruent,1,h,1,514.16,6
2816866,Photo,6,55,Face_10,item_12_2,Garden,green,Congruent,1,h,1,2458.18,7
2817018,Schematic,6,65,Face_37,item_12_2,Garden,green,Incongruent,1,h,1,552,6
2816545,Photo,6,30,Face_35,item_12_3,Garden,red,Congruent,1,h,1,549.635,8
2816555,Photo,6,31,Face_35,item_12_3,Garden,red,Congruent,1,h,1,618.66,4
2816558,Schematic,6,22,Face_37,item_12_3,Garden,red,Incongruent,1,h,1,709.905,2
2816562,Schematic,6,10,Face_37,item_12_3,Garden,red,Incongruent,1,space,0,500.15,6
2816564,Schematic,6,57,Face_37,item_12_3,Garden,red,Incongruent,1,h,1,746,7
2816567,Schematic,6,44,Face_37,item_12_3,Garden,red,Congruent,1,h,1,1113.625,7
2816569,Photo,6,49,Face_34,item_12_3,Garden,red,Incongruent,1,h,1,734.675,5
2816570,Schematic,6,57,Face_37,item_12_3,Garden,red,Congruent,1,h,1,1514.985,7
2816571,Schematic,6,32,Face_37,item_12_3,Garden,red,Congruent,1,h,1,633.3000001,3
2816572,Photo,6,29,Face_7,item_12_3,Garden,red,Congruent,1,h,1,520,3
2816573,Photo,6,10,Face_34,item_12_3,Garden,red,Incongruent,1,h,1,1557.21,5
2816575,Schematic,6,14,Face_37,item_12_3,Garden,red,Incongruent,1,h,1,748.49,7
2816580,Photo,6,47,Face_34,item_12_3,Garden,red,Incongruent,1,h,1,925.1949999,5
2816587,Photo,6,15,Face_7,item_12_3,Garden,red,Congruent,1,h,1,591.975,8
2816604,Schematic,6,69,Face_37,item_12_3,Garden,red,Congruent,1,h,1,1533,5
2816610,Photo,6,40,Face_7,item_12_3,Garden,red,Congruent,1,h,1,933.665,4
2816616,Schematic,6,70,Face_37,item_12_3,Garden,red,Congruent,1,h,1,587.955,9
2816619,Schematic,6,35,Face_37,item_12_3,Garden,red,Incongruent,1,h,1,770.405,6
2816622,Schematic,6,37,Face_37,item_12_3,Garden,red,Incongruent,1,h,1,718.585,6
2816629,Schematic,6,51,Face_37,item_12_3,Garden,red,Incongruent,1,h,1,491.06,5
2816631,Schematic,6,69,Face_37,item_12_3,Garden,red,Incongruent,1,h,1,667.375,7
2816633,Schematic,6,58,Face_37,item_12_3,Garden,red,Incongruent,1,h,1,814,6
2816635,Photo,6,56,Face_7,item_12_3,Garden,red,Congruent,1,h,1,799.38,2
2816636,Photo,6,31,Face_7,item_12_3,Garden,red,Congruent,1,h,1,524.075,5
2816641,Photo,6,72,Face_35,item_12_3,Garden,red,Congruent,1,h,1,724,7
2816644,Schematic,6,21,Face_37,item_12_3,Garden,red,Incongruent,1,h,1,657.505,7
2816647,Photo,6,8,Face_34,item_12_3,Garden,red,Incongruent,1,h,1,1059.755,6
2816648,Schematic,6,44,Face_37,item_12_3,Garden,red,Incongruent,1,h,1,1000.38,3
2816649,Photo,6,10,Face_35,item_12_3,Garden,red,Congruent,1,h,1,582.71,4
2816656,Photo,6,63,Face_7,item_12_3,Garden,red,Congruent,1,h,1,677,9
2816660,Photo,6,55,Face_34,item_12_3,Garden,red,Incongruent,1,h,1,489.8,3
2816661,Schematic,6,12,Face_37,item_12_3,Garden,red,Congruent,1,h,1,1315,8
2816665,Schematic,6,68,Face_37,item_12_3,Garden,red,Incongruent,1,h,1,776.11,8
2816673,Photo,6,27,Face_35,item_12_3,Garden,red,Congruent,1,h,1,678,4
2816681,Photo,6,37,Face_34,item_12_3,Garden,red,Incongruent,1,h,1,1626.525,7
2816687,Schematic,6,49,Face_37,item_12_3,Garden,red,Incongruent,1,h,1,882,2
2816698,Photo,6,55,Face_34,item_12_3,Garden,red,Incongruent,1,h,1,696.415,9
2816709,Schematic,6,40,Face_37,item_12_3,Garden,red,Incongruent,1,h,1,526,2
2816801,Schematic,6,31,Face_37,item_12_3,Garden,red,Incongruent,1,h,1,581.81,4
2816804,Schematic,6,58,Face_37,item_12_3,Garden,red,Congruent,1,h,1,734,2
2816805,Schematic,6,11,Face_37,item_12_3,Garden,red,Incongruent,1,h,1,603.495,4
2816822,Photo,6,24,Face_34,item_12_3,Garden,red,Incongruent,1,space,0,538.3,3
2817018,Schematic,6,21,Face_37,item_12_3,Garden,red,Incongruent,1,h,1,683,9
2816557,Photo,6,14,Face_28,item_12_4,Garden,yellow,Congruent,1,h,1,594.365,1
2816574,Photo,6,6,Face_28,item_12_4,Garden,yellow,Congruent,1,h,1,647.415,6
2816632,Photo,6,28,Face_28,item_12_4,Garden,yellow,Congruent,1,h,1,1032.895,7
2816640,Photo,6,62,Face_28,item_12_4,Garden,yellow,Congruent,1,h,1,635.675,5
2816659,Photo,6,36,Face_28,item_12_4,Garden,yellow,Congruent,1,space,0,1468.9,4
2816701,Photo,6,10,Face_28,item_12_4,Garden,yellow,Congruent,1,h,1,1317.03,7
2816799,Photo,6,64,Face_28,item_12_4,Garden,yellow,Congruent,1,h,1,844.525,5
2816557,Photo,6,66,Face_20,item_13_1,Garden,blue,Congruent,1,h,1,721.17,7
2816574,Photo,6,53,Face_20,item_13_1,Garden,blue,Congruent,1,h,1,1042.385,4
2816632,Photo,6,23,Face_20,item_13_1,Garden,blue,Congruent,1,h,1,814.1,3
2816640,Photo,6,30,Face_20,item_13_1,Garden,blue,Congruent,1,h,1,599.825,6
2816659,Photo,6,26,Face_20,item_13_1,Garden,blue,Congruent,1,h,1,943.795,4
2816701,Photo,6,71,Face_20,item_13_1,Garden,blue,Congruent,1,h,1,936.3,3
2816799,Photo,6,55,Face_20,item_13_1,Garden,blue,Congruent,1,h,1,686.9399999,2
2816545,Photo,6,14,Face_18,item_13_2,Garden,green,Incongruent,1,h,1,674.32,9
2816555,Photo,6,18,Face_18,item_13_2,Garden,green,Incongruent,1,h,1,848.045,6
2816558,Schematic,6,33,Face_37,item_13_2,Garden,green,Congruent,1,h,1,996.05,2
2816562,Schematic,6,45,Face_37,item_13_2,Garden,green,Congruent,1,h,1,566.71,4
2816564,Schematic,6,31,Face_37,item_13_2,Garden,green,Incongruent,1,h,1,907,8
2816567,Schematic,6,41,Face_37,item_13_2,Garden,green,Congruent,1,h,1,921.49,8
2816569,Photo,6,28,Face_15,item_13_2,Garden,green,Incongruent,1,h,1,637.1,3
2816570,Schematic,6,42,Face_37,item_13_2,Garden,green,Congruent,1,h,1,631.565,2
2816571,Schematic,6,65,Face_37,item_13_2,Garden,green,Congruent,1,h,1,1083.475,3
2816572,Photo,6,69,Face_7,item_13_2,Garden,green,Incongruent,1,h,1,776,5
2816573,Photo,6,59,Face_15,item_13_2,Garden,green,Incongruent,1,h,1,1402.055,5
2816575,Schematic,6,4,Face_37,item_13_2,Garden,green,Incongruent,1,h,1,836.84,5
2816580,Photo,6,36,Face_15,item_13_2,Garden,green,Incongruent,1,h,1,679.58,4
2816587,Photo,6,71,Face_7,item_13_2,Garden,green,Incongruent,1,h,1,718.695,5
2816604,Schematic,6,29,Face_37,item_13_2,Garden,green,Congruent,1,h,1,804,4
2816610,Photo,6,62,Face_7,item_13_2,Garden,green,Incongruent,1,h,1,1124.94,4
2816616,Schematic,6,38,Face_37,item_13_2,Garden,green,Congruent,1,h,1,917.12,2
2816619,Schematic,6,52,Face_37,item_13_2,Garden,green,Congruent,1,space,0,843.105,7
2816622,Schematic,6,2,Face_37,item_13_2,Garden,green,Incongruent,1,h,1,1086.375,4
2816629,Schematic,6,43,Face_37,item_13_2,Garden,green,Congruent,1,h,1,617.46,6
2816631,Schematic,6,7,Face_37,item_13_2,Garden,green,Incongruent,1,h,1,618.765,4
2816633,Schematic,6,3,Face_37,item_13_2,Garden,green,Congruent,1,h,1,1251,5
2816635,Photo,6,33,Face_7,item_13_2,Garden,green,Incongruent,1,h,1,1910.015,7
2816636,Photo,6,13,Face_7,item_13_2,Garden,green,Incongruent,1,h,1,1182.26,6
2816641,Photo,6,63,Face_18,item_13_2,Garden,green,Incongruent,1,h,1,634,7
2816644,Schematic,6,39,Face_37,item_13_2,Garden,green,Incongruent,1,h,1,670.14,4
2816647,Photo,6,46,Face_15,item_13_2,Garden,green,Incongruent,1,h,1,832.995,8
2816648,Schematic,6,67,Face_37,item_13_2,Garden,green,Congruent,1,h,1,649.19,8
2816649,Photo,6,58,Face_18,item_13_2,Garden,green,Incongruent,1,h,1,798.745,
2816656,Photo,6,34,Face_7,item_13_2,Garden,green,Incongruent,1,h,1,1089,9
2816660,Photo,6,20,Face_15,item_13_2,Garden,green,Incongruent,1,h,1,594.87,4
2816661,Schematic,6,16,Face_37,item_13_2,Garden,green,Congruent,1,h,1,948,2
2816665,Schematic,6,7,Face_37,item_13_2,Garden,green,Congruent,1,h,1,912.505,4
2816673,Photo,6,39,Face_18,item_13_2,Garden,green,Incongruent,1,h,1,667,4
2816681,Photo,6,58,Face_15,item_13_2,Garden,green,Incongruent,1,h,1,970.8450004,8
2816687,Schematic,6,26,Face_37,item_13_2,Garden,green,Incongruent,1,h,1,1037,1
2816698,Photo,6,33,Face_15,item_13_2,Garden,green,Incongruent,1,h,1,618.5,8
2816709,Schematic,6,56,Face_37,item_13_2,Garden,green,Congruent,1,h,1,833,1
2816801,Schematic,6,18,Face_37,item_13_2,Garden,green,Congruent,1,h,1,609.88,5
2816804,Schematic,6,54,Face_37,item_13_2,Garden,green,Congruent,1,h,1,905,2
2816805,Schematic,6,66,Face_37,item_13_2,Garden,green,Congruent,1,space,0,726.19,3
2816822,Photo,6,65,Face_15,item_13_2,Garden,green,Incongruent,1,h,1,677.43,4
2816866,Photo,6,31,Face_18,item_13_2,Garden,green,Incongruent,1,h,1,2341.32,8
2817018,Schematic,6,7,Face_37,item_13_2,Garden,green,Congruent,1,h,1,673,5
2816545,Photo,6,27,Face_8,item_13_3,Garden,red,Congruent,1,h,1,689.54,9
2816555,Photo,6,48,Face_8,item_13_3,Garden,red,Congruent,1,h,1,2405.715,3
2816558,Schematic,6,49,Face_37,item_13_3,Garden,red,Congruent,1,h,1,719.32,1
2816562,Schematic,6,39,Face_37,item_13_3,Garden,red,Congruent,1,h,1,639.355,5
2816564,Schematic,6,62,Face_37,item_13_3,Garden,red,Incongruent,1,h,1,587,6
2816567,Schematic,6,22,Face_37,item_13_3,Garden,red,Congruent,1,h,1,778.63,7
2816569,Photo,6,32,Face_30,item_13_3,Garden,red,Incongruent,1,h,1,576.39,6
2816570,Schematic,6,31,Face_37,item_13_3,Garden,red,Congruent,1,h,1,858.81,6
2816571,Schematic,6,72,Face_37,item_13_3,Garden,red,Congruent,1,h,1,948.33,9
2816572,Photo,6,47,Face_34,item_13_3,Garden,red,Congruent,1,h,1,576,
2816573,Photo,6,46,Face_30,item_13_3,Garden,red,Incongruent,1,h,1,723.655,7
2816575,Schematic,6,32,Face_37,item_13_3,Garden,red,Incongruent,1,space,0,934.465,7
2816580,Photo,6,33,Face_30,item_13_3,Garden,red,Incongruent,1,h,1,664.965,6
2816587,Photo,6,14,Face_34,item_13_3,Garden,red,Congruent,1,h,1,813.72,7
2816604,Schematic,6,6,Face_37,item_13_3,Garden,red,Congruent,1,h,1,775,5
2816610,Photo,6,70,Face_34,item_13_3,Garden,red,Congruent,1,h,1,872.44,2
2816616,Schematic,6,46,Face_37,item_13_3,Garden,red,Congruent,1,space,0,596.435,2
2816619,Schematic,6,53,Face_37,item_13_3,Garden,red,Congruent,1,h,1,959.365,8
2816622,Schematic,6,38,Face_37,item_13_3,Garden,red,Incongruent,1,h,1,1241.64,5
2816629,Schematic,6,29,Face_37,item_13_3,Garden,red,Congruent,1,h,1,1043.55,3
2816631,Schematic,6,71,Face_37,item_13_3,Garden,red,Incongruent,1,h,1,866.13,8
2816633,Schematic,6,49,Face_37,item_13_3,Garden,red,Congruent,1,h,1,803,8
2816635,Photo,6,13,Face_34,item_13_3,Garden,red,Congruent,1,h,1,1089.135,7
2816636,Photo,6,4,Face_34,item_13_3,Garden,red,Congruent,1,h,1,609.7,6
2816641,Photo,6,28,Face_8,item_13_3,Garden,red,Congruent,1,h,1,653,7
2816644,Schematic,6,1,Face_37,item_13_3,Garden,red,Incongruent,1,h,1,601.69,4
2816647,Photo,6,72,Face_30,item_13_3,Garden,red,Incongruent,1,h,1,684.635,8
2816648,Schematic,6,7,Face_37,item_13_3,Garden,red,Congruent,1,h,1,806.005,3
2816649,Photo,6,1,Face_8,item_13_3,Garden,red,Congruent,1,h,1,947.86,7
2816656,Photo,6,19,Face_34,item_13_3,Garden,red,Congruent,1,h,1,1132,6
2816660,Photo,6,65,Face_30,item_13_3,Garden,red,Incongruent,1,h,1,560.04,4
2816661,Schematic,6,42,Face_37,item_13_3,Garden,red,Congruent,1,h,1,673,3
2816665,Schematic,6,46,Face_37,item_13_3,Garden,red,Congruent,1,h,1,734.03,4
2816673,Photo,6,30,Face_8,item_13_3,Garden,red,Congruent,1,h,1,682,3
2816681,Photo,6,42,Face_30,item_13_3,Garden,red,Incongruent,1,h,1,956.3100003,4
2816687,Schematic,6,62,Face_37,item_13_3,Garden,red,Incongruent,1,h,1,959,1
2816698,Photo,6,60,Face_30,item_13_3,Garden,red,Incongruent,1,h,1,585.035,7
2816709,Schematic,6,58,Face_37,item_13_3,Garden,red,Congruent,1,space,0,404,5
2816801,Schematic,6,13,Face_37,item_13_3,Garden,red,Congruent,1,h,1,578.21,5
2816804,Schematic,6,8,Face_37,item_13_3,Garden,red,Congruent,1,h,1,1070,2
2816805,Schematic,6,52,Face_37,item_13_3,Garden,red,Congruent,1,space,0,491.585,5
2816822,Photo,6,47,Face_30,item_13_3,Garden,red,Incongruent,1,h,1,501.135,4
2816866,Photo,6,28,Face_8,item_13_3,Garden,red,Congruent,1,h,1,2145.76,2
2817018,Schematic,6,31,Face_37,item_13_3,Garden,red,Congruent,1,h,1,712,8
2816557,Photo,6,44,Face_19,item_13_4,Garden,yellow,Incongruent,1,h,1,832.115,5
2816574,Photo,6,56,Face_19,item_13_4,Garden,yellow,Incongruent,1,h,1,638.295,4
2816632,Photo,6,11,Face_19,item_13_4,Garden,yellow,Incongruent,1,h,1,825.725,3
2816640,Photo,6,10,Face_19,item_13_4,Garden,yellow,Incongruent,1,h,1,734.185,5
2816659,Photo,6,39,Face_19,item_13_4,Garden,yellow,Incongruent,1,h,1,1581.205,5
2816701,Photo,6,40,Face_19,item_13_4,Garden,yellow,Incongruent,1,h,1,1523.985,4
2816799,Photo,6,31,Face_19,item_13_4,Garden,yellow,Incongruent,1,h,1,897.0550001,5
2816557,Photo,6,22,Face_5,item_14_1,Garden,blue,Incongruent,1,h,1,1507.815,2
2816574,Photo,6,51,Face_5,item_14_1,Garden,blue,Incongruent,1,h,1,1097.155,7
2816632,Photo,6,51,Face_5,item_14_1,Garden,blue,Incongruent,1,h,1,834.355,5
2816640,Photo,6,47,Face_5,item_14_1,Garden,blue,Incongruent,1,h,1,827.785,4
2816659,Photo,6,5,Face_5,item_14_1,Garden,blue,Incongruent,1,h,1,758.935,4
2816701,Photo,6,36,Face_5,item_14_1,Garden,blue,Incongruent,1,h,1,1483.33,5
2816799,Photo,6,65,Face_5,item_14_1,Garden,blue,Incongruent,1,h,1,1159.58,8
2816545,Photo,6,9,Face_31,item_14_2,Garden,green,Congruent,1,h,1,652.635,4
2816555,Photo,6,19,Face_31,item_14_2,Garden,green,Congruent,1,h,1,688.265,7
2816558,Schematic,6,10,Face_37,item_14_2,Garden,green,Incongruent,1,h,1,1207.35,2
2816562,Schematic,6,1,Face_37,item_14_2,Garden,green,Incongruent,1,h,1,638.91,7
2816564,Schematic,6,49,Face_37,item_14_2,Garden,green,Incongruent,1,h,1,713,6
2816567,Schematic,6,18,Face_37,item_14_2,Garden,green,Incongruent,1,h,1,657.8,3
2816569,Photo,6,43,Face_29,item_14_2,Garden,green,Congruent,1,h,1,720.6,5
2816570,Schematic,6,6,Face_37,item_14_2,Garden,green,Incongruent,1,h,1,1202.4,3
2816571,Schematic,6,47,Face_37,item_14_2,Garden,green,Incongruent,1,h,1,749.9500001,8
2816572,Photo,6,72,Face_29,item_14_2,Garden,green,Incongruent,1,h,1,596,1
2816573,Photo,6,1,Face_29,item_14_2,Garden,green,Congruent,1,h,1,703.9300001,3
2816575,Schematic,6,54,Face_37,item_14_2,Garden,green,Incongruent,1,h,1,662.44,3
2816580,Photo,6,28,Face_29,item_14_2,Garden,green,Congruent,1,h,1,773.9499999,4
2816587,Photo,6,47,Face_29,item_14_2,Garden,green,Incongruent,1,h,1,624.1949999,3
2816604,Schematic,6,42,Face_37,item_14_2,Garden,green,Incongruent,1,h,1,1086,5
2816610,Photo,6,5,Face_29,item_14_2,Garden,green,Incongruent,1,h,1,798.265,6
2816616,Schematic,6,47,Face_37,item_14_2,Garden,green,Incongruent,1,h,1,684.105,3
2816619,Schematic,6,17,Face_37,item_14_2,Garden,green,Incongruent,1,h,1,955.0599999,8
2816622,Schematic,6,56,Face_37,item_14_2,Garden,green,Incongruent,1,h,1,915.915,6
2816629,Schematic,6,54,Face_37,item_14_2,Garden,green,Incongruent,1,h,1,676.78,4
2816631,Schematic,6,55,Face_37,item_14_2,Garden,green,Incongruent,1,space,0,648.455,6
2816633,Schematic,6,44,Face_37,item_14_2,Garden,green,Incongruent,1,h,1,780,9
2816635,Photo,6,28,Face_29,item_14_2,Garden,green,Incongruent,1,h,1,955.085,7
2816636,Photo,6,20,Face_29,item_14_2,Garden,green,Incongruent,1,h,1,1248.76,6
2816641,Photo,6,51,Face_31,item_14_2,Garden,green,Congruent,1,h,1,694,7
2816644,Schematic,6,4,Face_37,item_14_2,Garden,green,Incongruent,1,h,1,587.485,4
2816647,Photo,6,41,Face_29,item_14_2,Garden,green,Congruent,1,space,0,900.11,3
2816648,Schematic,6,37,Face_37,item_14_2,Garden,green,Incongruent,1,h,1,1513.395,3
2816649,Photo,6,57,Face_31,item_14_2,Garden,green,Congruent,1,h,1,704.665,4
2816656,Photo,6,66,Face_29,item_14_2,Garden,green,Incongruent,1,h,1,777,6
2816660,Photo,6,63,Face_29,item_14_2,Garden,green,Congruent,1,h,1,597.635,4
2816661,Schematic,6,60,Face_37,item_14_2,Garden,green,Incongruent,1,h,1,658,4
2816665,Schematic,6,42,Face_37,item_14_2,Garden,green,Incongruent,1,space,0,678.98,4
2816673,Photo,6,38,Face_31,item_14_2,Garden,green,Congruent,1,h,1,738,5
2816681,Photo,6,45,Face_29,item_14_2,Garden,green,Congruent,1,h,1,515.3649999,4
2816687,Schematic,6,41,Face_37,item_14_2,Garden,green,Incongruent,1,h,1,1053,2
2816698,Photo,6,72,Face_29,item_14_2,Garden,green,Congruent,1,h,1,575.46,8
2816709,Schematic,6,48,Face_37,item_14_2,Garden,green,Incongruent,1,h,1,505,1
2816801,Schematic,6,66,Face_37,item_14_2,Garden,green,Incongruent,1,h,1,617.115,6
2816804,Schematic,6,4,Face_37,item_14_2,Garden,green,Incongruent,1,h,1,1001,2
2816805,Schematic,6,14,Face_37,item_14_2,Garden,green,Incongruent,1,h,1,841.535,5
2816822,Photo,6,36,Face_29,item_14_2,Garden,green,Congruent,1,h,1,641.3,6
2816866,Photo,6,3,Face_31,item_14_2,Garden,green,Congruent,1,h,1,1105.825,4
2817018,Schematic,6,67,Face_37,item_14_2,Garden,green,Incongruent,1,h,1,719,4
2816545,Photo,6,56,Face_14,item_14_3,Garden,red,Congruent,1,h,1,592.92,3
2816555,Photo,6,55,Face_14,item_14_3,Garden,red,Congruent,1,h,1,846.24,3
2816558,Schematic,6,69,Face_37,item_14_3,Garden,red,Congruent,1,space,0,1092.395,7
2816562,Schematic,6,4,Face_37,item_14_3,Garden,red,Congruent,1,h,1,544.06,5
2816564,Schematic,6,50,Face_37,item_14_3,Garden,red,Congruent,1,h,1,631,6
2816567,Schematic,6,51,Face_37,item_14_3,Garden,red,Incongruent,1,h,1,767.32,4
2816569,Photo,6,1,Face_34,item_14_3,Garden,red,Congruent,1,h,1,1210.19,6
2816570,Schematic,6,59,Face_37,item_14_3,Garden,red,Incongruent,1,h,1,852.92,7
2816571,Schematic,6,28,Face_37,item_14_3,Garden,red,Incongruent,1,h,1,721.5,8
2816572,Photo,6,68,Face_36,item_14_3,Garden,red,Incongruent,1,h,1,670,
2816573,Photo,6,18,Face_34,item_14_3,Garden,red,Congruent,1,h,1,620.46,4
2816575,Schematic,6,43,Face_37,item_14_3,Garden,red,Congruent,1,space,0,762.935,6
2816580,Photo,6,24,Face_34,item_14_3,Garden,red,Congruent,1,space,0,332.33,5
2816587,Photo,6,36,Face_36,item_14_3,Garden,red,Incongruent,1,h,1,761.145,8
2816604,Schematic,6,62,Face_37,item_14_3,Garden,red,Incongruent,1,h,1,790,5
2816610,Photo,6,50,Face_36,item_14_3,Garden,red,Incongruent,1,h,1,1003.09,6
2816616,Schematic,6,54,Face_37,item_14_3,Garden,red,Incongruent,1,h,1,628.855,3
2816619,Schematic,6,68,Face_37,item_14_3,Garden,red,Congruent,1,space,0,759.49,3
2816622,Schematic,6,26,Face_37,item_14_3,Garden,red,Congruent,1,h,1,1680.63,7
2816629,Schematic,6,34,Face_37,item_14_3,Garden,red,Congruent,1,h,1,1433.585,7
2816631,Schematic,6,19,Face_37,item_14_3,Garden,red,Congruent,1,h,1,719.27,3
2816633,Schematic,6,1,Face_37,item_14_3,Garden,red,Congruent,1,h,1,726,4
2816635,Photo,6,45,Face_36,item_14_3,Garden,red,Incongruent,1,h,1,667.035,7
2816636,Photo,6,8,Face_36,item_14_3,Garden,red,Incongruent,1,h,1,660.625,4
2816641,Photo,6,56,Face_14,item_14_3,Garden,red,Congruent,1,h,1,619,7
2816644,Schematic,6,49,Face_37,item_14_3,Garden,red,Congruent,1,h,1,642.165,8
2816647,Photo,6,54,Face_34,item_14_3,Garden,red,Congruent,1,space,0,665.42,8
2816648,Schematic,6,17,Face_37,item_14_3,Garden,red,Congruent,1,h,1,1241.31,6
2816649,Photo,6,65,Face_14,item_14_3,Garden,red,Congruent,1,h,1,535.735,3
2816656,Photo,6,64,Face_36,item_14_3,Garden,red,Incongruent,1,h,1,717,5
2816660,Photo,6,18,Face_34,item_14_3,Garden,red,Congruent,1,h,1,690.905,4
2816661,Schematic,6,50,Face_37,item_14_3,Garden,red,Incongruent,1,h,1,622,7
2816665,Schematic,6,20,Face_37,item_14_3,Garden,red,Congruent,1,h,1,752.385,6
2816673,Photo,6,62,Face_14,item_14_3,Garden,red,Congruent,1,h,1,896,7
2816681,Photo,6,5,Face_34,item_14_3,Garden,red,Congruent,1,h,1,1995.54,6
2816687,Schematic,6,13,Face_37,item_14_3,Garden,red,Congruent,1,h,1,775,4
2816698,Photo,6,56,Face_34,item_14_3,Garden,red,Congruent,1,h,1,860.245,2
2816709,Schematic,6,46,Face_37,item_14_3,Garden,red,Congruent,1,h,1,609,6
2816801,Schematic,6,20,Face_37,item_14_3,Garden,red,Congruent,1,h,1,670.74,5
2816804,Schematic,6,28,Face_37,item_14_3,Garden,red,Incongruent,1,h,1,922,2
2816805,Schematic,6,15,Face_37,item_14_3,Garden,red,Congruent,1,h,1,846.895,3
2816822,Photo,6,67,Face_34,item_14_3,Garden,red,Congruent,1,h,1,724.995,1
2816866,Photo,6,27,Face_14,item_14_3,Garden,red,Congruent,1,h,1,2002.55,4
2817018,Schematic,6,59,Face_37,item_14_3,Garden,red,Congruent,1,h,1,786,7
2816557,Photo,6,25,Face_1,item_14_4,Garden,yellow,Congruent,1,h,1,1031.51,1
2816574,Photo,6,39,Face_1,item_14_4,Garden,yellow,Congruent,1,h,1,980.685,8
2816609,Photo,6,2,Face_1,item_14_4,Garden,yellow,Congruent,1,space,0,1167.9,8
2816632,Photo,6,47,Face_1,item_14_4,Garden,yellow,Congruent,1,h,1,803.775,6
2816640,Photo,6,57,Face_1,item_14_4,Garden,yellow,Congruent,1,h,1,788.6800001,6
2816659,Photo,6,35,Face_1,item_14_4,Garden,yellow,Congruent,1,h,1,1304.14,4
2816701,Photo,6,44,Face_1,item_14_4,Garden,yellow,Congruent,1,h,1,1301.21,6
2816799,Photo,6,34,Face_1,item_14_4,Garden,yellow,Congruent,1,h,1,718.945,3
2816557,Photo,6,58,Face_16,item_15_1,Garden,blue,Incongruent,1,h,1,1755.005,2
2816574,Photo,6,5,Face_16,item_15_1,Garden,blue,Incongruent,1,h,1,1052.78,7
2816632,Photo,6,54,Face_16,item_15_1,Garden,blue,Incongruent,1,h,1,789.75,5
2816640,Photo,6,13,Face_16,item_15_1,Garden,blue,Incongruent,1,h,1,634.29,7
2816659,Photo,6,15,Face_16,item_15_1,Garden,blue,Incongruent,1,h,1,1198.38,3
2816701,Photo,6,13,Face_16,item_15_1,Garden,blue,Incongruent,1,h,1,853.95,8
2816799,Photo,6,49,Face_16,item_15_1,Garden,blue,Incongruent,1,space,0,767.1650001,3
2816545,Photo,6,48,Face_21,item_15_2,Garden,green,Congruent,1,h,1,538.775,1
2816558,Schematic,6,15,Face_37,item_15_2,Garden,green,Congruent,1,h,1,1012.77,1
2816562,Schematic,6,46,Face_37,item_15_2,Garden,green,Congruent,1,h,1,558.62,8
2816564,Schematic,6,3,Face_37,item_15_2,Garden,green,Incongruent,1,h,1,525,4
2816567,Schematic,6,2,Face_37,item_15_2,Garden,green,Incongruent,1,h,1,685.06,4
2816569,Photo,6,39,Face_13,item_15_2,Garden,green,Congruent,1,h,1,941.26,6
2816570,Schematic,6,25,Face_37,item_15_2,Garden,green,Incongruent,1,h,1,1819.265,8
2816571,Schematic,6,7,Face_37,item_15_2,Garden,green,Incongruent,1,h,1,759.54,5
2816572,Photo,6,64,Face_33,item_15_2,Garden,green,Incongruent,1,h,1,732,3
2816573,Photo,6,60,Face_13,item_15_2,Garden,green,Congruent,1,h,1,1183.81,6
2816575,Schematic,6,10,Face_37,item_15_2,Garden,green,Incongruent,1,space,0,720.265,7
2816580,Photo,6,41,Face_13,item_15_2,Garden,green,Congruent,1,h,1,884.07,4
2816587,Photo,6,31,Face_33,item_15_2,Garden,green,Incongruent,1,h,1,651.245,9
2816604,Schematic,6,68,Face_37,item_15_2,Garden,green,Incongruent,1,h,1,949,5
2816610,Photo,6,3,Face_33,item_15_2,Garden,green,Incongruent,1,h,1,870.77,2
2816616,Schematic,6,32,Face_37,item_15_2,Garden,green,Incongruent,1,h,1,765.435,7
2816619,Schematic,6,46,Face_37,item_15_2,Garden,green,Congruent,1,h,1,696.085,7
2816622,Schematic,6,49,Face_37,item_15_2,Garden,green,Incongruent,1,h,1,1180.855,6
2816629,Schematic,6,56,Face_37,item_15_2,Garden,green,Congruent,1,h,1,1086.315,4
2816631,Schematic,6,8,Face_37,item_15_2,Garden,green,Incongruent,1,h,1,765.505,5
2816633,Schematic,6,38,Face_37,item_15_2,Garden,green,Congruent,1,h,1,929,9
2816635,Photo,6,18,Face_33,item_15_2,Garden,green,Incongruent,1,h,1,1692.8,8
2816636,Photo,6,41,Face_33,item_15_2,Garden,green,Incongruent,1,h,1,1115.06,6
2816641,Photo,6,58,Face_21,item_15_2,Garden,green,Congruent,1,h,1,714,7
2816644,Schematic,6,64,Face_37,item_15_2,Garden,green,Incongruent,1,h,1,665.125,2
2816647,Photo,6,11,Face_13,item_15_2,Garden,green,Congruent,1,h,1,1097.55,9
2816648,Schematic,6,19,Face_37,item_15_2,Garden,green,Congruent,1,h,1,1396.1,5
2816649,Photo,6,44,Face_21,item_15_2,Garden,green,Congruent,1,h,1,756.12,1
2816656,Photo,6,47,Face_33,item_15_2,Garden,green,Incongruent,1,h,1,2060,9
2816660,Photo,6,25,Face_13,item_15_2,Garden,green,Congruent,1,space,0,437.615,4
2816661,Schematic,6,28,Face_37,item_15_2,Garden,green,Incongruent,1,h,1,641,2
2816665,Schematic,6,13,Face_37,item_15_2,Garden,green,Congruent,1,h,1,550.045,4
2816673,Photo,6,33,Face_21,item_15_2,Garden,green,Congruent,1,h,1,671,8
2816681,Photo,6,39,Face_13,item_15_2,Garden,green,Congruent,1,h,1,746.5999997,3
2816687,Schematic,6,52,Face_37,item_15_2,Garden,green,Incongruent,1,space,0,556,2
2816698,Photo,6,24,Face_13,item_15_2,Garden,green,Congruent,1,h,1,713.675,6
2816709,Schematic,6,63,Face_37,item_15_2,Garden,green,Congruent,1,h,1,566,4
2816801,Schematic,6,50,Face_37,item_15_2,Garden,green,Congruent,1,h,1,623.2,8
2816804,Schematic,6,13,Face_37,item_15_2,Garden,green,Incongruent,1,h,1,591,2
2816805,Schematic,6,5,Face_37,item_15_2,Garden,green,Congruent,1,h,1,1937.965,3
2816822,Photo,6,66,Face_13,item_15_2,Garden,green,Congruent,1,h,1,644.585,4
2816866,Photo,6,6,Face_21,item_15_2,Garden,green,Congruent,1,h,1,1153.535,7
2817018,Schematic,6,48,Face_37,item_15_2,Garden,green,Congruent,1,h,1,834,7
2816545,Photo,6,69,Face_8,item_15_3,Garden,red,Incongruent,1,h,1,543.8,3
2816555,Photo,6,10,Face_8,item_15_3,Garden,red,Incongruent,1,h,1,1619.665,5
2816558,Schematic,6,44,Face_37,item_15_3,Garden,red,Incongruent,1,h,1,999.42,1
2816562,Schematic,6,17,Face_37,item_15_3,Garden,red,Incongruent,1,space,0,484.1,5
2816564,Schematic,6,60,Face_37,item_15_3,Garden,red,Incongruent,1,h,1,652,7
2816567,Schematic,6,69,Face_37,item_15_3,Garden,red,Congruent,1,h,1,999.48,7
2816569,Photo,6,22,Face_20,item_15_3,Garden,red,Congruent,1,h,1,914.515,6
2816570,Schematic,6,30,Face_37,item_15_3,Garden,red,Congruent,1,h,1,1286.455,3
2816571,Schematic,6,40,Face_37,item_15_3,Garden,red,Congruent,1,h,1,997.4199999,6
2816572,Photo,6,54,Face_1,item_15_3,Garden,red,Incongruent,1,h,1,682,
2816573,Photo,6,68,Face_20,item_15_3,Garden,red,Congruent,1,h,1,1134.34,2
2816575,Schematic,6,53,Face_37,item_15_3,Garden,red,Incongruent,1,h,1,694.9,4
2816580,Photo,6,6,Face_20,item_15_3,Garden,red,Congruent,1,h,1,544.765,4
2816587,Photo,6,22,Face_1,item_15_3,Garden,red,Incongruent,1,h,1,747.4699999,2
2816604,Schematic,6,15,Face_37,item_15_3,Garden,red,Congruent,1,h,1,705,5
2816610,Photo,6,6,Face_1,item_15_3,Garden,red,Incongruent,1,h,1,926.37,5
2816616,Schematic,6,20,Face_37,item_15_3,Garden,red,Congruent,1,space,0,628.135,4
2816619,Schematic,6,66,Face_37,item_15_3,Garden,red,Incongruent,1,h,1,700.415,3
2816622,Schematic,6,23,Face_37,item_15_3,Garden,red,Incongruent,1,h,1,1245.825,4
2816629,Schematic,6,38,Face_37,item_15_3,Garden,red,Incongruent,1,h,1,680.93,5
2816631,Schematic,6,51,Face_37,item_15_3,Garden,red,Incongruent,1,h,1,873.71,5
2816635,Photo,6,6,Face_1,item_15_3,Garden,red,Incongruent,1,h,1,915.195,3
2816636,Photo,6,1,Face_1,item_15_3,Garden,red,Incongruent,1,h,1,885.56,5
2816641,Photo,6,37,Face_8,item_15_3,Garden,red,Incongruent,1,h,1,980,7
2816644,Schematic,6,50,Face_37,item_15_3,Garden,red,Incongruent,1,space,0,514.76,7
2816647,Photo,6,49,Face_20,item_15_3,Garden,red,Congruent,1,h,1,910.68,6
2816648,Schematic,6,10,Face_37,item_15_3,Garden,red,Incongruent,1,h,1,1493.94,5
2816649,Photo,6,68,Face_8,item_15_3,Garden,red,Incongruent,1,h,1,680.45,1
2816656,Photo,6,50,Face_1,item_15_3,Garden,red,Incongruent,1,h,1,1269,9
2816660,Photo,6,62,Face_20,item_15_3,Garden,red,Congruent,1,h,1,970.915,3
2816661,Schematic,6,5,Face_37,item_15_3,Garden,red,Congruent,1,h,1,632,5
2816665,Schematic,6,23,Face_37,item_15_3,Garden,red,Incongruent,1,h,1,526.935,6
2816673,Photo,6,1,Face_8,item_15_3,Garden,red,Incongruent,1,h,1,682,8
2816681,Photo,6,52,Face_20,item_15_3,Garden,red,Congruent,1,h,1,736.5850001,7
2816687,Schematic,6,68,Face_37,item_15_3,Garden,red,Incongruent,1,space,0,617,7
2816698,Photo,6,48,Face_20,item_15_3,Garden,red,Congruent,1,h,1,584.645,4
2816709,Schematic,6,31,Face_37,item_15_3,Garden,red,Incongruent,1,h,1,755,8
2816801,Schematic,6,58,Face_37,item_15_3,Garden,red,Incongruent,1,h,1,723.765,3
2816804,Schematic,6,33,Face_37,item_15_3,Garden,red,Congruent,1,h,1,726,2
2816805,Schematic,6,72,Face_37,item_15_3,Garden,red,Incongruent,1,h,1,698.715,4
2816822,Photo,6,34,Face_20,item_15_3,Garden,red,Congruent,1,h,1,741.385,4
2816866,Photo,6,41,Face_8,item_15_3,Garden,red,Incongruent,1,h,1,1219.9,5
2817018,Schematic,6,45,Face_37,item_15_3,Garden,red,Incongruent,1,h,1,1191,1
2816557,Photo,6,46,Face_3,item_15_4,Garden,yellow,Congruent,1,h,1,675.92,3
2816574,Photo,6,66,Face_3,item_15_4,Garden,yellow,Congruent,1,h,1,723.87,5
2816632,Photo,6,30,Face_3,item_15_4,Garden,yellow,Congruent,1,h,1,845.13,4
2816640,Photo,6,1,Face_3,item_15_4,Garden,yellow,Congruent,1,h,1,665.255,6
2816659,Photo,6,31,Face_3,item_15_4,Garden,yellow,Congruent,1,space,0,1250.205,6
2816701,Photo,6,49,Face_3,item_15_4,Garden,yellow,Congruent,1,h,1,1365.75,8
2816799,Photo,6,69,Face_3,item_15_4,Garden,yellow,Congruent,1,h,1,825.475,4
2816557,Photo,6,27,Face_27,item_16_1,Garden,blue,Congruent,1,h,1,692.66,8
2816574,Photo,6,71,Face_27,item_16_1,Garden,blue,Congruent,1,h,1,719.295,4
2816632,Photo,6,40,Face_27,item_16_1,Garden,blue,Congruent,1,h,1,804.44,7
2816640,Photo,6,20,Face_27,item_16_1,Garden,blue,Congruent,1,h,1,693.39,5
2816659,Photo,6,3,Face_27,item_16_1,Garden,blue,Congruent,1,h,1,916.9449999,4
2816701,Photo,6,53,Face_27,item_16_1,Garden,blue,Congruent,1,h,1,709.2,8
2816799,Photo,6,54,Face_27,item_16_1,Garden,blue,Congruent,1,h,1,679.75,6
2816545,Photo,6,71,Face_12,item_16_2,Garden,green,Congruent,1,h,1,519.89,5
2816555,Photo,6,63,Face_12,item_16_2,Garden,green,Congruent,1,h,1,1577.605,3
2816558,Schematic,6,54,Face_37,item_16_2,Garden,green,Incongruent,1,h,1,2105.81,1
2816562,Schematic,6,59,Face_37,item_16_2,Garden,green,Incongruent,1,space,0,641.56,6
2816564,Schematic,6,2,Face_37,item_16_2,Garden,green,Congruent,1,h,1,764,8
2816567,Schematic,6,42,Face_37,item_16_2,Garden,green,Congruent,1,h,1,774.575,6
2816569,Photo,6,13,Face_25,item_16_2,Garden,green,Incongruent,1,h,1,674.2,6
2816570,Schematic,6,27,Face_37,item_16_2,Garden,green,Congruent,1,h,1,1149.85,3
2816571,Schematic,6,2,Face_37,item_16_2,Garden,green,Congruent,1,h,1,587.5249999,3
2816572,Photo,6,16,Face_25,item_16_2,Garden,green,Congruent,1,h,1,646,
2816573,Photo,6,44,Face_25,item_16_2,Garden,green,Incongruent,1,h,1,1491.28,3
2816575,Schematic,6,40,Face_37,item_16_2,Garden,green,Congruent,1,h,1,802.625,4
2816580,Photo,6,42,Face_25,item_16_2,Garden,green,Incongruent,1,h,1,675.385,2
2816587,Photo,6,39,Face_25,item_16_2,Garden,green,Congruent,1,h,1,607.95,4
2816604,Schematic,6,43,Face_37,item_16_2,Garden,green,Congruent,1,h,1,959,6
2816610,Photo,6,65,Face_25,item_16_2,Garden,green,Congruent,1,h,1,491.62,6
2816616,Schematic,6,48,Face_37,item_16_2,Garden,green,Congruent,1,h,1,928.6,5
2816619,Schematic,6,51,Face_37,item_16_2,Garden,green,Incongruent,1,h,1,578.735,4
2816622,Schematic,6,63,Face_37,item_16_2,Garden,green,Congruent,1,h,1,723.52,2
2816629,Schematic,6,10,Face_37,item_16_2,Garden,green,Incongruent,1,h,1,1153.005,4
2816631,Schematic,6,53,Face_37,item_16_2,Garden,green,Congruent,1,h,1,1215.375,5
2816633,Schematic,6,54,Face_37,item_16_2,Garden,green,Incongruent,1,space,0,1056,7
2816635,Photo,6,35,Face_25,item_16_2,Garden,green,Congruent,1,h,1,728.78,4
2816636,Photo,6,65,Face_25,item_16_2,Garden,green,Congruent,1,h,1,1602.83,4
2816641,Photo,6,71,Face_12,item_16_2,Garden,green,Congruent,1,h,1,598,5
2816644,Schematic,6,13,Face_37,item_16_2,Garden,green,Congruent,1,h,1,576.115,4
2816647,Photo,6,20,Face_25,item_16_2,Garden,green,Incongruent,1,h,1,991.95,6
2816648,Schematic,6,35,Face_37,item_16_2,Garden,green,Incongruent,1,h,1,1147.03,6
2816649,Photo,6,2,Face_12,item_16_2,Garden,green,Congruent,1,h,1,753.475,4
2816656,Photo,6,16,Face_25,item_16_2,Garden,green,Congruent,1,h,1,922,5
2816660,Photo,6,34,Face_25,item_16_2,Garden,green,Incongruent,1,h,1,473.67,3
2816661,Schematic,6,15,Face_37,item_16_2,Garden,green,Congruent,1,h,1,689,2
2816665,Schematic,6,30,Face_37,item_16_2,Garden,green,Incongruent,1,h,1,645.515,4
2816673,Photo,6,2,Face_12,item_16_2,Garden,green,Congruent,1,h,1,657,3
2816681,Photo,6,72,Face_25,item_16_2,Garden,green,Incongruent,1,h,1,897.3299996,7
2816687,Schematic,6,65,Face_37,item_16_2,Garden,green,Congruent,1,h,1,1137,3
2816698,Photo,6,22,Face_25,item_16_2,Garden,green,Incongruent,1,h,1,805.05,2
2816709,Schematic,6,7,Face_37,item_16_2,Garden,green,Incongruent,1,h,1,651,7
2816801,Schematic,6,26,Face_37,item_16_2,Garden,green,Incongruent,1,h,1,606.06,4
2816804,Schematic,6,36,Face_37,item_16_2,Garden,green,Congruent,1,h,1,613,2
2816805,Schematic,6,62,Face_37,item_16_2,Garden,green,Incongruent,1,h,1,598.995,4
2816822,Photo,6,19,Face_25,item_16_2,Garden,green,Incongruent,1,h,1,534.835,1
2816866,Photo,6,13,Face_12,item_16_2,Garden,green,Congruent,1,h,1,1188.37,6
2817018,Schematic,6,54,Face_37,item_16_2,Garden,green,Incongruent,1,space,0,585,6
2816545,Photo,6,52,Face_14,item_16_3,Garden,red,Incongruent,1,h,1,662.195,5
2816555,Photo,6,70,Face_14,item_16_3,Garden,red,Incongruent,1,h,1,1771.59,6
2816558,Schematic,6,20,Face_37,item_16_3,Garden,red,Incongruent,1,h,1,1277.33,2
2816562,Schematic,6,60,Face_37,item_16_3,Garden,red,Incongruent,1,h,1,563.61,5
2816564,Schematic,6,63,Face_37,item_16_3,Garden,red,Incongruent,1,h,1,852,4
2816567,Schematic,6,19,Face_37,item_16_3,Garden,red,Incongruent,1,h,1,596.1600001,8
2816569,Photo,6,45,Face_12,item_16_3,Garden,red,Congruent,1,h,1,807.34,3
2816570,Schematic,6,33,Face_37,item_16_3,Garden,red,Incongruent,1,h,1,1104.37,3
2816571,Schematic,6,1,Face_37,item_16_3,Garden,red,Incongruent,1,h,1,562.3649999,3
2816572,Photo,6,12,Face_2,item_16_3,Garden,red,Incongruent,1,space,0,516,3
2816573,Photo,6,53,Face_12,item_16_3,Garden,red,Congruent,1,h,1,1203.105,1
2816575,Schematic,6,36,Face_37,item_16_3,Garden,red,Incongruent,1,h,1,825.2,6
2816580,Photo,6,55,Face_12,item_16_3,Garden,red,Congruent,1,h,1,627.525,6
2816587,Photo,6,62,Face_2,item_16_3,Garden,red,Incongruent,1,h,1,696.505,3
2816604,Schematic,6,27,Face_37,item_16_3,Garden,red,Incongruent,1,h,1,1383,6
2816610,Photo,6,46,Face_2,item_16_3,Garden,red,Incongruent,1,h,1,1066.16,8
2816616,Schematic,6,52,Face_37,item_16_3,Garden,red,Incongruent,1,h,1,809.91,5
2816622,Schematic,6,64,Face_37,item_16_3,Garden,red,Incongruent,1,h,1,997.0300001,3
2816629,Schematic,6,44,Face_37,item_16_3,Garden,red,Incongruent,1,h,1,550.42,3
2816631,Schematic,6,47,Face_37,item_16_3,Garden,red,Incongruent,1,space,0,541.52,6
2816633,Schematic,6,11,Face_37,item_16_3,Garden,red,Incongruent,1,h,1,1546,1
2816635,Photo,6,37,Face_2,item_16_3,Garden,red,Incongruent,1,h,1,1375.59,3
2816636,Photo,6,51,Face_2,item_16_3,Garden,red,Incongruent,1,h,1,634.475,3
2816641,Photo,6,8,Face_14,item_16_3,Garden,red,Incongruent,1,space,0,1139,7
2816644,Schematic,6,16,Face_37,item_16_3,Garden,red,Incongruent,1,h,1,607.43,8
2816647,Photo,6,13,Face_12,item_16_3,Garden,red,Congruent,1,h,1,1128.03,5
2816648,Schematic,6,59,Face_37,item_16_3,Garden,red,Incongruent,1,h,1,1092.965,5
2816649,Photo,6,48,Face_14,item_16_3,Garden,red,Incongruent,1,h,1,666.325,
2816656,Photo,6,59,Face_2,item_16_3,Garden,red,Incongruent,1,h,1,806,9
2816660,Photo,6,30,Face_12,item_16_3,Garden,red,Congruent,1,h,1,476.88,4
2816661,Schematic,6,48,Face_37,item_16_3,Garden,red,Incongruent,1,h,1,595,4
2816665,Schematic,6,62,Face_37,item_16_3,Garden,red,Incongruent,1,h,1,614.97,3
2816673,Photo,6,49,Face_14,item_16_3,Garden,red,Incongruent,1,h,1,725,5
2816681,Photo,6,30,Face_12,item_16_3,Garden,red,Congruent,1,h,1,851.7100001,4
2816687,Schematic,6,50,Face_37,item_16_3,Garden,red,Incongruent,1,h,1,1837,8
2816698,Photo,6,25,Face_12,item_16_3,Garden,red,Congruent,1,h,1,811.38,2
2816709,Schematic,6,64,Face_37,item_16_3,Garden,red,Incongruent,1,h,1,566,4
2816801,Schematic,6,21,Face_37,item_16_3,Garden,red,Incongruent,1,h,1,637.55,6
2816804,Schematic,6,46,Face_37,item_16_3,Garden,red,Incongruent,1,h,1,2055,2
2816805,Schematic,6,7,Face_37,item_16_3,Garden,red,Incongruent,1,h,1,1423.27,8
2816822,Photo,6,58,Face_12,item_16_3,Garden,red,Congruent,1,h,1,545.28,2
2816866,Photo,6,42,Face_14,item_16_3,Garden,red,Incongruent,1,h,1,1103.06,7
2817018,Schematic,6,43,Face_37,item_16_3,Garden,red,Incongruent,1,h,1,983,7
2816557,Photo,6,16,Face_2,item_16_4,Garden,yellow,Incongruent,1,h,1,603.52,7
2816574,Photo,6,41,Face_2,item_16_4,Garden,yellow,Incongruent,1,h,1,767.36,8
2816632,Photo,6,31,Face_2,item_16_4,Garden,yellow,Incongruent,1,h,1,813.36,7
2816640,Photo,6,71,Face_2,item_16_4,Garden,yellow,Incongruent,1,h,1,599.87,3
2816659,Photo,6,43,Face_2,item_16_4,Garden,yellow,Incongruent,1,h,1,730.7449998,6
2816701,Photo,6,60,Face_2,item_16_4,Garden,yellow,Incongruent,1,h,1,666.625,5
2816799,Photo,6,30,Face_2,item_16_4,Garden,yellow,Incongruent,1,h,1,988.0050001,8
2816557,Photo,6,35,Face_18,item_17_1,Garden,blue,Congruent,1,h,1,752.625,1
2816574,Photo,6,29,Face_18,item_17_1,Garden,blue,Congruent,1,h,1,691.23,4
2816632,Photo,6,59,Face_18,item_17_1,Garden,blue,Congruent,1,h,1,949.01,3
2816640,Photo,6,35,Face_18,item_17_1,Garden,blue,Congruent,1,h,1,627.32,6
2816659,Photo,6,12,Face_18,item_17_1,Garden,blue,Congruent,1,h,1,690.01,5
2816701,Photo,6,62,Face_18,item_17_1,Garden,blue,Congruent,1,h,1,1007.17,6
2816799,Photo,6,48,Face_18,item_17_1,Garden,blue,Congruent,1,h,1,792.6149999,7
2816545,Photo,6,53,Face_34,item_17_2,Garden,green,Incongruent,1,space,0,719.89,8
2816555,Photo,6,7,Face_34,item_17_2,Garden,green,Incongruent,1,h,1,1053.31,7
2816558,Schematic,6,28,Face_37,item_17_2,Garden,green,Congruent,1,h,1,738.75,6
2816562,Schematic,6,35,Face_37,item_17_2,Garden,green,Congruent,1,h,1,692.405,6
2816564,Schematic,6,36,Face_37,item_17_2,Garden,green,Incongruent,1,h,1,845,6
2816567,Schematic,6,7,Face_37,item_17_2,Garden,green,Congruent,1,h,1,668.48,8
2816569,Photo,6,59,Face_23,item_17_2,Garden,green,Incongruent,1,h,1,921.505,5
2816570,Schematic,6,60,Face_37,item_17_2,Garden,green,Congruent,1,h,1,747.895,4
2816571,Schematic,6,31,Face_37,item_17_2,Garden,green,Congruent,1,h,1,751.125,2
2816572,Photo,6,1,Face_5,item_17_2,Garden,green,Congruent,1,h,1,1049,6
2816573,Photo,6,37,Face_23,item_17_2,Garden,green,Incongruent,1,h,1,2110.565,2
2816575,Schematic,6,7,Face_37,item_17_2,Garden,green,Incongruent,1,h,1,894.505,8
2816580,Photo,6,61,Face_23,item_17_2,Garden,green,Incongruent,1,h,1,716.3399999,6
2816587,Photo,6,33,Face_5,item_17_2,Garden,green,Congruent,1,h,1,675.305,7
2816604,Schematic,6,33,Face_37,item_17_2,Garden,green,Congruent,1,h,1,1379,4
2816610,Photo,6,25,Face_5,item_17_2,Garden,green,Congruent,1,h,1,893.9,5
2816616,Schematic,6,19,Face_37,item_17_2,Garden,green,Congruent,1,h,1,646.77,2
2816619,Schematic,6,61,Face_37,item_17_2,Garden,green,Congruent,1,h,1,646.09,6
2816622,Schematic,6,21,Face_37,item_17_2,Garden,green,Incongruent,1,h,1,675.025,8
2816629,Schematic,6,33,Face_37,item_17_2,Garden,green,Congruent,1,h,1,712.45,5
2816631,Schematic,6,34,Face_37,item_17_2,Garden,green,Incongruent,1,space,0,697.58,6
2816633,Schematic,6,34,Face_37,item_17_2,Garden,green,Congruent,1,h,1,930,5
2816635,Photo,6,14,Face_5,item_17_2,Garden,green,Congruent,1,h,1,820.7,1
2816636,Photo,6,67,Face_5,item_17_2,Garden,green,Congruent,1,h,1,886.815,6
2816641,Photo,6,39,Face_34,item_17_2,Garden,green,Incongruent,1,h,1,621,7
2816644,Schematic,6,55,Face_37,item_17_2,Garden,green,Incongruent,1,h,1,566.305,6
2816647,Photo,6,53,Face_23,item_17_2,Garden,green,Incongruent,1,h,1,721.52,5
2816648,Schematic,6,60,Face_37,item_17_2,Garden,green,Congruent,1,h,1,788.51,6
2816649,Photo,6,60,Face_34,item_17_2,Garden,green,Incongruent,1,h,1,736.405,4
2816656,Photo,6,55,Face_5,item_17_2,Garden,green,Congruent,1,h,1,862,9
2816660,Photo,6,69,Face_23,item_17_2,Garden,green,Incongruent,1,h,1,633.71,5
2816661,Schematic,6,37,Face_37,item_17_2,Garden,green,Congruent,1,h,1,598,4
2816665,Schematic,6,5,Face_37,item_17_2,Garden,green,Congruent,1,h,1,629.075,6
2816673,Photo,6,25,Face_34,item_17_2,Garden,green,Incongruent,1,h,1,705,3
2816681,Photo,6,16,Face_23,item_17_2,Garden,green,Incongruent,1,h,1,1492.465,5
2816687,Schematic,6,43,Face_37,item_17_2,Garden,green,Incongruent,1,h,1,1396,2
2816698,Photo,6,69,Face_23,item_17_2,Garden,green,Incongruent,1,h,1,866.51,3
2816709,Schematic,6,10,Face_37,item_17_2,Garden,green,Congruent,1,space,0,475,2
2816801,Schematic,6,14,Face_37,item_17_2,Garden,green,Congruent,1,h,1,735.66,8
2816804,Schematic,6,67,Face_37,item_17_2,Garden,green,Congruent,1,h,1,735,5
2816805,Schematic,6,40,Face_37,item_17_2,Garden,green,Congruent,1,h,1,755.665,4
2816822,Photo,6,45,Face_23,item_17_2,Garden,green,Incongruent,1,space,0,776.31,4
2816866,Photo,6,48,Face_34,item_17_2,Garden,green,Incongruent,1,h,1,1846.325,2
2817018,Schematic,6,64,Face_37,item_17_2,Garden,green,Congruent,1,h,1,1067,7
2816545,Photo,6,47,Face_20,item_17_3,Garden,red,Incongruent,1,h,1,669.915,9
2816555,Photo,6,40,Face_20,item_17_3,Garden,red,Incongruent,1,h,1,1346.085,2
2816558,Schematic,6,18,Face_37,item_17_3,Garden,red,Congruent,1,h,1,1377.68,1
2816562,Schematic,6,36,Face_37,item_17_3,Garden,red,Congruent,1,h,1,612.45,5
2816564,Schematic,6,55,Face_37,item_17_3,Garden,red,Incongruent,1,h,1,601,5
2816567,Schematic,6,21,Face_37,item_17_3,Garden,red,Incongruent,1,h,1,1067.14,4
2816569,Photo,6,7,Face_30,item_17_3,Garden,red,Congruent,1,h,1,1176.695,4
2816570,Schematic,6,65,Face_37,item_17_3,Garden,red,Incongruent,1,h,1,1218.36,3
2816571,Schematic,6,37,Face_37,item_17_3,Garden,red,Incongruent,1,h,1,844.82,6
2816572,Photo,6,46,Face_16,item_17_3,Garden,red,Congruent,1,h,1,664,5
2816573,Photo,6,3,Face_30,item_17_3,Garden,red,Congruent,1,h,1,1095.17,6
2816575,Schematic,6,15,Face_37,item_17_3,Garden,red,Incongruent,1,h,1,847.455,5
2816580,Photo,6,66,Face_30,item_17_3,Garden,red,Congruent,1,h,1,555.955,4
2816587,Photo,6,45,Face_16,item_17_3,Garden,red,Congruent,1,h,1,1073.02,2
2816604,Schematic,6,57,Face_37,item_17_3,Garden,red,Incongruent,1,h,1,936,6
2816610,Photo,6,44,Face_16,item_17_3,Garden,red,Congruent,1,h,1,746.545,4
2816616,Schematic,6,3,Face_37,item_17_3,Garden,red,Incongruent,1,h,1,643.455,8
2816619,Schematic,6,37,Face_37,item_17_3,Garden,red,Congruent,1,h,1,691.625,5
2816622,Schematic,6,71,Face_37,item_17_3,Garden,red,Incongruent,1,h,1,720.68,6
2816629,Schematic,6,9,Face_37,item_17_3,Garden,red,Congruent,1,h,1,762.3,3
2816631,Schematic,6,24,Face_37,item_17_3,Garden,red,Incongruent,1,h,1,773.365,3
2816633,Schematic,6,30,Face_37,item_17_3,Garden,red,Congruent,1,h,1,808,9
2816635,Photo,6,65,Face_16,item_17_3,Garden,red,Congruent,1,h,1,808.145,3
2816636,Photo,6,71,Face_16,item_17_3,Garden,red,Congruent,1,h,1,1841.45,7
2816641,Photo,6,25,Face_20,item_17_3,Garden,red,Incongruent,1,h,1,706,1
2816644,Schematic,6,32,Face_37,item_17_3,Garden,red,Incongruent,1,h,1,764.69,8
2816647,Photo,6,27,Face_30,item_17_3,Garden,red,Congruent,1,h,1,1346.705,5
2816648,Schematic,6,56,Face_37,item_17_3,Garden,red,Congruent,1,h,1,992.91,5
2816649,Photo,6,13,Face_20,item_17_3,Garden,red,Incongruent,1,h,1,641.07,5
2816656,Photo,6,32,Face_16,item_17_3,Garden,red,Congruent,1,h,1,1265,9
2816660,Photo,6,5,Face_30,item_17_3,Garden,red,Congruent,1,h,1,518.945,9
2816661,Schematic,6,17,Face_37,item_17_3,Garden,red,Incongruent,1,h,1,599,2
2816665,Schematic,6,39,Face_37,item_17_3,Garden,red,Congruent,1,h,1,670.375,7
2816673,Photo,6,7,Face_20,item_17_3,Garden,red,Incongruent,1,h,1,608,4
2816681,Photo,6,22,Face_30,item_17_3,Garden,red,Congruent,1,h,1,866.4949997,3
2816687,Schematic,6,1,Face_37,item_17_3,Garden,red,Incongruent,1,h,1,763,6
2816698,Photo,6,36,Face_30,item_17_3,Garden,red,Congruent,1,h,1,1374.84,5
2816709,Schematic,6,35,Face_37,item_17_3,Garden,red,Congruent,1,h,1,611,3
2816801,Schematic,6,41,Face_37,item_17_3,Garden,red,Congruent,1,h,1,629.01,7
2816804,Schematic,6,40,Face_37,item_17_3,Garden,red,Incongruent,1,h,1,961,2
2816805,Schematic,6,19,Face_37,item_17_3,Garden,red,Congruent,1,h,1,689.955,4
2816822,Photo,6,17,Face_30,item_17_3,Garden,red,Congruent,1,h,1,447.555,5
2816866,Photo,6,22,Face_20,item_17_3,Garden,red,Incongruent,1,h,1,827.395,7
2817018,Schematic,6,71,Face_37,item_17_3,Garden,red,Congruent,1,h,1,558,2
2816557,Photo,6,4,Face_33,item_17_4,Garden,yellow,Incongruent,1,h,1,2093.29,4
2816574,Photo,6,14,Face_33,item_17_4,Garden,yellow,Incongruent,1,h,1,708.89,7
2816632,Photo,6,45,Face_33,item_17_4,Garden,yellow,Incongruent,1,h,1,743.79,2
2816640,Photo,6,4,Face_33,item_17_4,Garden,yellow,Incongruent,1,h,1,541.24,5
2816659,Photo,6,53,Face_33,item_17_4,Garden,yellow,Incongruent,1,h,1,671.8550001,4
2816701,Photo,6,42,Face_33,item_17_4,Garden,yellow,Incongruent,1,h,1,745.01,6
2816799,Photo,6,71,Face_33,item_17_4,Garden,yellow,Incongruent,1,h,1,806.585,4
2816557,Photo,6,61,Face_23,item_18_1,Garden,blue,Congruent,1,h,1,626.325,8
2816574,Photo,6,26,Face_23,item_18_1,Garden,blue,Congruent,1,h,1,660.73,6
2816632,Photo,6,26,Face_23,item_18_1,Garden,blue,Congruent,1,h,1,784.245,3
2816640,Photo,6,26,Face_23,item_18_1,Garden,blue,Congruent,1,h,1,648.01,4
2816659,Photo,6,8,Face_23,item_18_1,Garden,blue,Congruent,1,h,1,746.1549998,4
2816701,Photo,6,4,Face_23,item_18_1,Garden,blue,Congruent,1,h,1,1082.795,6
2816799,Photo,6,17,Face_23,item_18_1,Garden,blue,Congruent,1,h,1,684.005,3
2816545,Photo,6,12,Face_33,item_18_2,Garden,green,Congruent,1,h,1,1092.2,6
2816555,Photo,6,60,Face_33,item_18_2,Garden,green,Congruent,1,h,1,672.73,7
2816558,Schematic,6,67,Face_37,item_18_2,Garden,green,Incongruent,1,h,1,784.615,4
2816562,Schematic,6,28,Face_37,item_18_2,Garden,green,Incongruent,1,h,1,557.29,5
2816564,Schematic,6,65,Face_37,item_18_2,Garden,green,Congruent,1,h,1,658,6
2816567,Schematic,6,17,Face_37,item_18_2,Garden,green,Congruent,1,h,1,719.55,6
2816569,Photo,6,68,Face_17,item_18_2,Garden,green,Congruent,1,h,1,627.495,4
2816570,Schematic,6,16,Face_37,item_18_2,Garden,green,Congruent,1,h,1,1701.89,3
2816571,Schematic,6,61,Face_37,item_18_2,Garden,green,Congruent,1,h,1,596.5249999,8
2816572,Photo,6,58,Face_5,item_18_2,Garden,green,Incongruent,1,h,1,903,2
2816573,Photo,6,7,Face_17,item_18_2,Garden,green,Congruent,1,h,1,566.89,2
2816575,Schematic,6,30,Face_37,item_18_2,Garden,green,Congruent,1,h,1,714,2
2816580,Photo,6,39,Face_17,item_18_2,Garden,green,Congruent,1,h,1,640.67,2
2816587,Photo,6,29,Face_5,item_18_2,Garden,green,Incongruent,1,h,1,693.51,8
2816604,Schematic,6,11,Face_37,item_18_2,Garden,green,Congruent,1,h,1,737,3
2816610,Photo,6,19,Face_5,item_18_2,Garden,green,Incongruent,1,h,1,833.855,5
2816616,Schematic,6,39,Face_37,item_18_2,Garden,green,Congruent,1,h,1,871.855,7
2816619,Schematic,6,48,Face_37,item_18_2,Garden,green,Incongruent,1,h,1,1154.425,7
2816622,Schematic,6,53,Face_37,item_18_2,Garden,green,Congruent,1,h,1,813.4249999,8
2816629,Schematic,6,47,Face_37,item_18_2,Garden,green,Incongruent,1,h,1,522.845,5
2816631,Schematic,6,9,Face_37,item_18_2,Garden,green,Congruent,1,h,1,737.975,2
2816633,Schematic,6,63,Face_37,item_18_2,Garden,green,Incongruent,1,h,1,778,9
2816635,Photo,6,67,Face_5,item_18_2,Garden,green,Incongruent,1,h,1,698.9450001,2
2816636,Photo,6,35,Face_5,item_18_2,Garden,green,Incongruent,1,h,1,584.66,3
2816641,Photo,6,42,Face_33,item_18_2,Garden,green,Congruent,1,h,1,632,7
2816644,Schematic,6,34,Face_37,item_18_2,Garden,green,Congruent,1,h,1,503.055,9
2816647,Photo,6,37,Face_17,item_18_2,Garden,green,Congruent,1,h,1,1764.245,5
2816648,Schematic,6,70,Face_37,item_18_2,Garden,green,Incongruent,1,h,1,720.845,6
2816649,Photo,6,52,Face_33,item_18_2,Garden,green,Congruent,1,h,1,606.085,
2816656,Photo,6,69,Face_5,item_18_2,Garden,green,Incongruent,1,h,1,2182,7
2816660,Photo,6,9,Face_17,item_18_2,Garden,green,Congruent,1,h,1,557.1649999,6
2816661,Schematic,6,58,Face_37,item_18_2,Garden,green,Congruent,1,h,1,617,4
2816665,Schematic,6,3,Face_37,item_18_2,Garden,green,Incongruent,1,h,1,784.415,4
2816673,Photo,6,70,Face_33,item_18_2,Garden,green,Congruent,1,h,1,921,8
2816681,Photo,6,44,Face_17,item_18_2,Garden,green,Congruent,1,h,1,770.4099999,4
2816687,Schematic,6,54,Face_37,item_18_2,Garden,green,Congruent,1,h,1,2398,1
2816698,Photo,6,65,Face_17,item_18_2,Garden,green,Congruent,1,h,1,593.135,3
2816709,Schematic,6,43,Face_37,item_18_2,Garden,green,Incongruent,1,h,1,639,7
2816801,Schematic,6,15,Face_37,item_18_2,Garden,green,Incongruent,1,h,1,654.69,5
2816804,Schematic,6,30,Face_37,item_18_2,Garden,green,Congruent,1,h,1,667,2
2816805,Schematic,6,13,Face_37,item_18_2,Garden,green,Incongruent,1,h,1,770.145,3
2816822,Photo,6,49,Face_17,item_18_2,Garden,green,Congruent,1,h,1,623.17,
2816866,Photo,6,16,Face_33,item_18_2,Garden,green,Congruent,1,h,1,1507.775,6
2817018,Schematic,6,18,Face_37,item_18_2,Garden,green,Incongruent,1,space,0,523,5
2816545,Photo,6,60,Face_20,item_18_3,Garden,red,Congruent,1,h,1,536.525,4
2816555,Photo,6,49,Face_20,item_18_3,Garden,red,Congruent,1,h,1,728.755,6
2816562,Schematic,6,26,Face_37,item_18_3,Garden,red,Incongruent,1,h,1,575.69,6
2816564,Schematic,6,47,Face_37,item_18_3,Garden,red,Congruent,1,h,1,657,6
2816567,Schematic,6,3,Face_37,item_18_3,Garden,red,Incongruent,1,h,1,547.5900001,4
2816569,Photo,6,50,Face_36,item_18_3,Garden,red,Congruent,1,h,1,926.64,4
2816570,Schematic,6,12,Face_37,item_18_3,Garden,red,Incongruent,1,h,1,998.09,6
2816571,Schematic,6,5,Face_37,item_18_3,Garden,red,Incongruent,1,h,1,604.825,4
2816572,Photo,6,70,Face_15,item_18_3,Garden,red,Congruent,1,h,1,584,7
2816573,Photo,6,8,Face_36,item_18_3,Garden,red,Congruent,1,h,1,555.805,2
2816575,Schematic,6,44,Face_37,item_18_3,Garden,red,Congruent,1,h,1,631.375,7
2816580,Photo,6,1,Face_36,item_18_3,Garden,red,Congruent,1,h,1,592.0000001,3
2816587,Photo,6,24,Face_15,item_18_3,Garden,red,Congruent,1,h,1,613.89,6
2816604,Schematic,6,5,Face_37,item_18_3,Garden,red,Incongruent,1,h,1,720,4
2816610,Photo,6,26,Face_15,item_18_3,Garden,red,Congruent,1,h,1,668.105,7
2816616,Schematic,6,65,Face_37,item_18_3,Garden,red,Incongruent,1,h,1,550.05,7
2816619,Schematic,6,8,Face_37,item_18_3,Garden,red,Incongruent,1,h,1,879.455,4
2816622,Schematic,6,19,Face_37,item_18_3,Garden,red,Congruent,1,h,1,871.045,6
2816629,Schematic,6,49,Face_37,item_18_3,Garden,red,Incongruent,1,h,1,615.125,5
2816631,Schematic,6,18,Face_37,item_18_3,Garden,red,Congruent,1,space,0,696.255,5
2816633,Schematic,6,39,Face_37,item_18_3,Garden,red,Incongruent,1,h,1,781,9
2816635,Photo,6,10,Face_15,item_18_3,Garden,red,Congruent,1,h,1,808.9600001,7
2816636,Photo,6,72,Face_15,item_18_3,Garden,red,Congruent,1,h,1,600.21,7
2816641,Photo,6,19,Face_20,item_18_3,Garden,red,Congruent,1,h,1,866,6
2816644,Schematic,6,22,Face_37,item_18_3,Garden,red,Congruent,1,h,1,620.005,7
2816647,Photo,6,36,Face_36,item_18_3,Garden,red,Congruent,1,h,1,1003.84,6
2816648,Schematic,6,26,Face_37,item_18_3,Garden,red,Incongruent,1,h,1,1448.115,6
2816649,Photo,6,38,Face_20,item_18_3,Garden,red,Congruent,1,h,1,639.385,3
2816656,Photo,6,7,Face_15,item_18_3,Garden,red,Congruent,1,h,1,1727,9
2816660,Photo,6,17,Face_36,item_18_3,Garden,red,Congruent,1,h,1,436.215,4
2816661,Schematic,6,56,Face_37,item_18_3,Garden,red,Incongruent,1,h,1,828,7
2816665,Schematic,6,28,Face_37,item_18_3,Garden,red,Incongruent,1,h,1,685.33,4
2816673,Photo,6,35,Face_20,item_18_3,Garden,red,Congruent,1,h,1,815,6
2816681,Photo,6,46,Face_36,item_18_3,Garden,red,Congruent,1,h,1,616.3999997,4
2816687,Schematic,6,19,Face_37,item_18_3,Garden,red,Congruent,1,h,1,829,7
2816698,Photo,6,32,Face_36,item_18_3,Garden,red,Congruent,1,h,1,758.94,4
2816709,Schematic,6,1,Face_37,item_18_3,Garden,red,Incongruent,1,h,1,536,2
2816801,Schematic,6,42,Face_37,item_18_3,Garden,red,Incongruent,1,h,1,574.69,6
2816804,Schematic,6,11,Face_37,item_18_3,Garden,red,Incongruent,1,h,1,1028,2
2816805,Schematic,6,64,Face_37,item_18_3,Garden,red,Incongruent,1,h,1,869.55,7
2816822,Photo,6,6,Face_36,item_18_3,Garden,red,Congruent,1,h,1,540.745,3
2816866,Photo,6,38,Face_20,item_18_3,Garden,red,Congruent,1,h,1,1849.4,5
2817018,Schematic,6,2,Face_37,item_18_3,Garden,red,Incongruent,1,h,1,720,1
2816557,Photo,6,21,Face_13,item_18_4,Garden,yellow,Congruent,1,h,1,656.86,4
2816574,Photo,6,28,Face_13,item_18_4,Garden,yellow,Congruent,1,h,1,608.195,6
2816632,Photo,6,44,Face_13,item_18_4,Garden,yellow,Congruent,1,h,1,695.56,8
2816640,Photo,6,65,Face_13,item_18_4,Garden,yellow,Congruent,1,h,1,601.525,6
2816659,Photo,6,52,Face_13,item_18_4,Garden,yellow,Congruent,1,h,1,791.9699999,4
2816701,Photo,6,19,Face_13,item_18_4,Garden,yellow,Congruent,1,h,1,966.01,4
2816799,Photo,6,70,Face_13,item_18_4,Garden,yellow,Congruent,1,h,1,1374.78,6
2816557,Photo,6,1,Face_14,item_19_1,Kitchen,blue,Incongruent,1,space,1,1093.88,6
2816574,Photo,6,22,Face_14,item_19_1,Kitchen,blue,Incongruent,1,space,1,971.83,4
2816609,Photo,6,1,Face_14,item_19_1,Kitchen,blue,Incongruent,1,space,1,1507.66,4
2816632,Photo,6,32,Face_14,item_19_1,Kitchen,blue,Incongruent,1,space,1,995.885,6
2816640,Photo,6,9,Face_14,item_19_1,Kitchen,blue,Incongruent,1,space,1,796.655,5
2816659,Photo,6,22,Face_14,item_19_1,Kitchen,blue,Incongruent,1,space,1,1400.94,7
2816701,Photo,6,52,Face_14,item_19_1,Kitchen,blue,Incongruent,1,space,1,1165.14,3
2816799,Photo,6,14,Face_14,item_19_1,Kitchen,blue,Incongruent,1,h,0,727.4100001,4
2816557,Photo,6,20,Face_18,item_19_2,Kitchen,green,Incongruent,1,space,1,1035.87,3
2816574,Photo,6,12,Face_18,item_19_2,Kitchen,green,Incongruent,1,space,1,1051.065,5
2816632,Photo,6,6,Face_18,item_19_2,Kitchen,green,Incongruent,1,space,1,1338.925,5
2816640,Photo,6,23,Face_18,item_19_2,Kitchen,green,Incongruent,1,h,0,920.48,4
2816659,Photo,6,66,Face_18,item_19_2,Kitchen,green,Incongruent,1,space,1,809.295,3
2816701,Photo,6,6,Face_18,item_19_2,Kitchen,green,Incongruent,1,space,1,1288.1,3
2816799,Photo,6,68,Face_18,item_19_2,Kitchen,green,Incongruent,1,space,1,798.905,7
2816545,Photo,6,68,Face_27,item_19_3,Kitchen,red,Congruent,1,h,0,582.345,8
2816555,Photo,6,32,Face_27,item_19_3,Kitchen,red,Congruent,1,space,1,1372.525,6
2816558,Schematic,6,13,Face_37,item_19_3,Kitchen,red,Congruent,1,space,1,924.585,2
2816562,Schematic,6,53,Face_37,item_19_3,Kitchen,red,Congruent,1,h,0,704.13,7
2816564,Schematic,6,12,Face_37,item_19_3,Kitchen,red,Incongruent,1,space,1,813,6
2816567,Schematic,6,24,Face_37,item_19_3,Kitchen,red,Incongruent,1,space,1,880.6649999,3
2816569,Photo,6,55,Face_14,item_19_3,Kitchen,red,Incongruent,1,space,1,1260.3,2
2816570,Schematic,6,35,Face_37,item_19_3,Kitchen,red,Incongruent,1,space,1,1383.735,8
2816571,Schematic,6,19,Face_37,item_19_3,Kitchen,red,Incongruent,1,space,1,815.01,5
2816572,Photo,6,59,Face_2,item_19_3,Kitchen,red,Congruent,1,space,1,997,
2816573,Photo,6,57,Face_14,item_19_3,Kitchen,red,Incongruent,1,space,1,1018.3,5
2816575,Schematic,6,13,Face_37,item_19_3,Kitchen,red,Incongruent,1,space,1,758.03,6
2816580,Photo,6,71,Face_14,item_19_3,Kitchen,red,Incongruent,1,h,0,648.68,5
2816587,Photo,6,70,Face_2,item_19_3,Kitchen,red,Congruent,1,space,1,678.4399999,6
2816604,Schematic,6,64,Face_37,item_19_3,Kitchen,red,Incongruent,1,space,1,830,5
2816610,Photo,6,34,Face_2,item_19_3,Kitchen,red,Congruent,1,h,0,730.17,6
2816616,Schematic,6,53,Face_37,item_19_3,Kitchen,red,Incongruent,1,h,0,646.685,2
2816619,Schematic,6,33,Face_37,item_19_3,Kitchen,red,Congruent,1,space,1,854.345,4
2816622,Schematic,6,40,Face_37,item_19_3,Kitchen,red,Incongruent,1,space,1,1092.765,6
2816629,Schematic,6,70,Face_37,item_19_3,Kitchen,red,Congruent,1,space,1,885.18,6
2816631,Schematic,6,45,Face_37,item_19_3,Kitchen,red,Incongruent,1,space,1,677.605,4
2816635,Photo,6,12,Face_2,item_19_3,Kitchen,red,Congruent,1,h,0,747.58,4
2816636,Photo,6,61,Face_2,item_19_3,Kitchen,red,Congruent,1,space,1,959.815,6
2816641,Photo,6,30,Face_27,item_19_3,Kitchen,red,Congruent,1,space,1,745,7
2816644,Schematic,6,8,Face_37,item_19_3,Kitchen,red,Incongruent,1,space,1,615.5,2
2816648,Schematic,6,36,Face_37,item_19_3,Kitchen,red,Congruent,1,h,0,729.115,5
2816649,Photo,6,40,Face_27,item_19_3,Kitchen,red,Congruent,1,space,1,876.845,5
2816656,Photo,6,2,Face_2,item_19_3,Kitchen,red,Congruent,1,h,0,1141,9
2816660,Photo,6,36,Face_14,item_19_3,Kitchen,red,Incongruent,1,space,1,631.525,5
2816661,Schematic,6,3,Face_37,item_19_3,Kitchen,red,Incongruent,1,space,1,2316,1
2816665,Schematic,6,24,Face_37,item_19_3,Kitchen,red,Congruent,1,space,1,1282.57,4
2816673,Photo,6,28,Face_27,item_19_3,Kitchen,red,Congruent,1,h,0,948,3
2816681,Photo,6,18,Face_14,item_19_3,Kitchen,red,Incongruent,1,space,1,829.465,3
2816687,Schematic,6,46,Face_37,item_19_3,Kitchen,red,Incongruent,1,space,1,567,6
2816698,Photo,6,20,Face_14,item_19_3,Kitchen,red,Incongruent,1,h,0,639.085,1
2816709,Schematic,6,20,Face_37,item_19_3,Kitchen,red,Congruent,1,h,0,523,2
2816801,Schematic,6,11,Face_37,item_19_3,Kitchen,red,Congruent,1,h,0,522.88,6
2816804,Schematic,6,52,Face_37,item_19_3,Kitchen,red,Incongruent,1,space,1,807,2
2816805,Schematic,6,65,Face_37,item_19_3,Kitchen,red,Congruent,1,space,1,804.71,6
2816822,Photo,6,20,Face_14,item_19_3,Kitchen,red,Incongruent,1,space,1,749.815,2
2816866,Photo,6,67,Face_27,item_19_3,Kitchen,red,Congruent,1,space,1,1719.83,8
2817018,Schematic,6,8,Face_37,item_19_3,Kitchen,red,Congruent,1,space,1,997,5
2816545,Photo,6,42,Face_3,item_19_4,Kitchen,yellow,Congruent,1,space,1,866.65,9
2816555,Photo,6,58,Face_3,item_19_4,Kitchen,yellow,Congruent,1,space,1,1212.78,7
2816558,Schematic,6,37,Face_37,item_19_4,Kitchen,yellow,Incongruent,1,space,1,1624.285,1
2816562,Schematic,6,31,Face_37,item_19_4,Kitchen,yellow,Incongruent,1,h,0,609.915,7
2816564,Schematic,6,25,Face_37,item_19_4,Kitchen,yellow,Congruent,1,space,1,776,6
2816567,Schematic,6,43,Face_37,item_19_4,Kitchen,yellow,Congruent,1,space,1,847.49,4
2816569,Photo,6,58,Face_4,item_19_4,Kitchen,yellow,Incongruent,1,space,1,713.665,2
2816570,Schematic,6,2,Face_37,item_19_4,Kitchen,yellow,Congruent,1,space,1,1191.9,6
2816571,Schematic,6,10,Face_37,item_19_4,Kitchen,yellow,Congruent,1,space,1,635.21,5
2816572,Photo,6,63,Face_16,item_19_4,Kitchen,yellow,Incongruent,1,h,0,565,3
2816573,Photo,6,63,Face_4,item_19_4,Kitchen,yellow,Incongruent,1,space,1,1363.16,5
2816575,Schematic,6,27,Face_37,item_19_4,Kitchen,yellow,Congruent,1,space,1,769.24,3
2816580,Photo,6,40,Face_4,item_19_4,Kitchen,yellow,Incongruent,1,space,1,943.26,4
2816587,Photo,6,63,Face_16,item_19_4,Kitchen,yellow,Incongruent,1,space,1,720.145,2
2816604,Schematic,6,53,Face_37,item_19_4,Kitchen,yellow,Congruent,1,space,1,833,7
2816610,Photo,6,43,Face_16,item_19_4,Kitchen,yellow,Incongruent,1,space,1,722.93,4
2816616,Schematic,6,57,Face_37,item_19_4,Kitchen,yellow,Congruent,1,space,1,733.605,8
2816619,Schematic,6,22,Face_37,item_19_4,Kitchen,yellow,Incongruent,1,space,1,873.12,4
2816622,Schematic,6,20,Face_37,item_19_4,Kitchen,yellow,Congruent,1,space,1,904.385,5
2816629,Schematic,6,67,Face_37,item_19_4,Kitchen,yellow,Incongruent,1,h,0,533.88,5
2816631,Schematic,6,57,Face_37,item_19_4,Kitchen,yellow,Congruent,1,space,1,846.34,5
2816635,Photo,6,30,Face_16,item_19_4,Kitchen,yellow,Incongruent,1,space,1,956.545,
2816636,Photo,6,6,Face_16,item_19_4,Kitchen,yellow,Incongruent,1,h,0,675.835,7
2816641,Photo,6,55,Face_3,item_19_4,Kitchen,yellow,Congruent,1,space,1,758,7
2816644,Schematic,6,58,Face_37,item_19_4,Kitchen,yellow,Congruent,1,space,1,648.115,1
2816647,Photo,6,7,Face_4,item_19_4,Kitchen,yellow,Incongruent,1,space,1,1357.235,2
2816648,Schematic,6,66,Face_37,item_19_4,Kitchen,yellow,Incongruent,1,space,1,1208.755,7
2816649,Photo,6,19,Face_3,item_19_4,Kitchen,yellow,Congruent,1,space,1,762.57,3
2816656,Photo,6,1,Face_16,item_19_4,Kitchen,yellow,Incongruent,1,space,1,1851,8
2816660,Photo,6,14,Face_4,item_19_4,Kitchen,yellow,Incongruent,1,space,1,726.17,5
2816661,Schematic,6,67,Face_37,item_19_4,Kitchen,yellow,Congruent,1,space,1,894,8
2816673,Photo,6,23,Face_3,item_19_4,Kitchen,yellow,Congruent,1,space,1,771,4
2816681,Photo,6,57,Face_4,item_19_4,Kitchen,yellow,Incongruent,1,h,0,646.8350003,3
2816698,Photo,6,58,Face_4,item_19_4,Kitchen,yellow,Incongruent,1,space,1,1074.465,5
2816709,Schematic,6,24,Face_37,item_19_4,Kitchen,yellow,Incongruent,1,space,1,566,6
2816801,Schematic,6,1,Face_37,item_19_4,Kitchen,yellow,Incongruent,1,space,1,653.565,5
2816804,Schematic,6,14,Face_37,item_19_4,Kitchen,yellow,Congruent,1,space,1,714,2
2816805,Schematic,6,37,Face_37,item_19_4,Kitchen,yellow,Incongruent,1,space,1,803.66,5
2816822,Photo,6,61,Face_4,item_19_4,Kitchen,yellow,Incongruent,1,h,0,542.325,2
2816866,Photo,6,50,Face_3,item_19_4,Kitchen,yellow,Congruent,1,space,1,914.68,4
2817018,Schematic,6,5,Face_37,item_19_4,Kitchen,yellow,Incongruent,1,space,1,684,7
2816555,Photo,6,6,Face_4,item_2_1,Garden,blue,Congruent,1,h,1,796.805,6
2816558,Schematic,6,39,Face_37,item_2_1,Garden,blue,Congruent,1,h,1,1053.795,1
2816562,Schematic,6,72,Face_37,item_2_1,Garden,blue,Congruent,1,h,1,674.7,3
2816564,Schematic,6,26,Face_37,item_2_1,Garden,blue,Incongruent,1,h,1,859,6
2816567,Schematic,6,34,Face_37,item_2_1,Garden,blue,Congruent,1,h,1,805.7949999,3
2816569,Photo,6,24,Face_29,item_2_1,Garden,blue,Incongruent,1,h,1,796.825,8
2816570,Schematic,6,45,Face_37,item_2_1,Garden,blue,Congruent,1,h,1,1405.75,6
2816571,Schematic,6,53,Face_37,item_2_1,Garden,blue,Congruent,1,h,1,588.005,6
2816572,Photo,6,23,Face_27,item_2_1,Garden,blue,Incongruent,1,h,1,696,
2816573,Photo,6,28,Face_29,item_2_1,Garden,blue,Incongruent,1,h,1,1054.075,2
2816575,Schematic,6,58,Face_37,item_2_1,Garden,blue,Incongruent,1,h,1,763.525,4
2816580,Photo,6,48,Face_29,item_2_1,Garden,blue,Incongruent,1,h,1,650.88,5
2816587,Photo,6,8,Face_27,item_2_1,Garden,blue,Incongruent,1,h,1,550.2200001,8
2816604,Schematic,6,14,Face_37,item_2_1,Garden,blue,Congruent,1,h,1,840,2
2816610,Photo,6,36,Face_27,item_2_1,Garden,blue,Incongruent,1,space,0,563.945,1
2816616,Schematic,6,43,Face_37,item_2_1,Garden,blue,Congruent,1,h,1,560.845,5
2816619,Schematic,6,10,Face_37,item_2_1,Garden,blue,Congruent,1,h,1,713.22,5
2816622,Schematic,6,29,Face_37,item_2_1,Garden,blue,Incongruent,1,h,1,948.43,6
2816629,Schematic,6,27,Face_37,item_2_1,Garden,blue,Congruent,1,h,1,1027.72,3
2816631,Schematic,6,20,Face_37,item_2_1,Garden,blue,Incongruent,1,h,1,872.31,4
2816633,Schematic,6,53,Face_37,item_2_1,Garden,blue,Congruent,1,h,1,1530,7
2816635,Photo,6,72,Face_27,item_2_1,Garden,blue,Incongruent,1,h,1,665.6750001,9
2816636,Photo,6,66,Face_27,item_2_1,Garden,blue,Incongruent,1,h,1,760.71,6
2816641,Photo,6,29,Face_4,item_2_1,Garden,blue,Congruent,1,h,1,587,5
2816644,Schematic,6,27,Face_37,item_2_1,Garden,blue,Incongruent,1,h,1,592.43,1
2816647,Photo,6,43,Face_29,item_2_1,Garden,blue,Incongruent,1,h,1,682.395,4
2816648,Schematic,6,54,Face_37,item_2_1,Garden,blue,Congruent,1,h,1,758.635,5
2816649,Photo,6,62,Face_4,item_2_1,Garden,blue,Congruent,1,h,1,807.41,3
2816656,Photo,6,13,Face_27,item_2_1,Garden,blue,Incongruent,1,h,1,839,5
2816660,Photo,6,54,Face_29,item_2_1,Garden,blue,Incongruent,1,h,1,501.825,4
2816661,Schematic,6,46,Face_37,item_2_1,Garden,blue,Congruent,1,h,1,594,8
2816665,Schematic,6,50,Face_37,item_2_1,Garden,blue,Congruent,1,h,1,672.985,3
2816673,Photo,6,31,Face_4,item_2_1,Garden,blue,Congruent,1,h,1,720,3
2816681,Photo,6,17,Face_29,item_2_1,Garden,blue,Incongruent,1,h,1,897.3050001,2
2816687,Schematic,6,29,Face_37,item_2_1,Garden,blue,Incongruent,1,space,0,604,5
2816698,Photo,6,10,Face_29,item_2_1,Garden,blue,Incongruent,1,space,0,571.565,5
2816709,Schematic,6,61,Face_37,item_2_1,Garden,blue,Congruent,1,h,1,584,4
2816801,Schematic,6,48,Face_37,item_2_1,Garden,blue,Congruent,1,h,1,544.25,7
2816804,Schematic,6,17,Face_37,item_2_1,Garden,blue,Congruent,1,h,1,780,2
2816805,Schematic,6,27,Face_37,item_2_1,Garden,blue,Congruent,1,h,1,1843.655,5
2816822,Photo,6,72,Face_29,item_2_1,Garden,blue,Incongruent,1,h,1,518.35,6
2816866,Photo,6,57,Face_4,item_2_1,Garden,blue,Congruent,1,h,1,1458.265,8
2817018,Schematic,6,46,Face_37,item_2_1,Garden,blue,Congruent,1,h,1,947,1
2816545,Photo,6,39,Face_11,item_2_2,Garden,green,Congruent,1,h,1,837.565,9
2816555,Photo,6,3,Face_11,item_2_2,Garden,green,Congruent,1,h,1,1067.985,6
2816558,Schematic,6,62,Face_37,item_2_2,Garden,green,Congruent,1,h,1,905.735,7
2816562,Schematic,6,48,Face_37,item_2_2,Garden,green,Incongruent,1,h,1,581.275,6
2816564,Schematic,6,29,Face_37,item_2_2,Garden,green,Congruent,1,h,1,812,4
2816567,Schematic,6,54,Face_37,item_2_2,Garden,green,Incongruent,1,h,1,648.1900001,4
2816569,Photo,6,71,Face_5,item_2_2,Garden,green,Incongruent,1,h,1,634.37,6
2816570,Schematic,6,3,Face_37,item_2_2,Garden,green,Incongruent,1,h,1,1366.72,7
2816571,Schematic,6,44,Face_37,item_2_2,Garden,green,Incongruent,1,h,1,698.1500001,3
2816572,Photo,6,11,Face_32,item_2_2,Garden,green,Incongruent,1,h,1,740,3
2816573,Photo,6,72,Face_5,item_2_2,Garden,green,Incongruent,1,h,1,983.58,2
2816575,Schematic,6,42,Face_37,item_2_2,Garden,green,Congruent,1,h,1,622.19,7
2816580,Photo,6,27,Face_5,item_2_2,Garden,green,Incongruent,1,space,0,467.6,5
2816587,Photo,6,46,Face_32,item_2_2,Garden,green,Incongruent,1,h,1,937.87,8
2816604,Schematic,6,30,Face_37,item_2_2,Garden,green,Incongruent,1,h,1,1147,8
2816610,Photo,6,53,Face_32,item_2_2,Garden,green,Incongruent,1,h,1,681.68,5
2816616,Schematic,6,8,Face_37,item_2_2,Garden,green,Incongruent,1,h,1,636.58,8
2816619,Schematic,6,25,Face_37,item_2_2,Garden,green,Congruent,1,h,1,607.405,8
2816622,Schematic,6,62,Face_37,item_2_2,Garden,green,Congruent,1,h,1,934.6350001,7
2816629,Schematic,6,46,Face_37,item_2_2,Garden,green,Incongruent,1,h,1,502.43,5
2816631,Schematic,6,28,Face_37,item_2_2,Garden,green,Congruent,1,h,1,703.855,6
2816635,Photo,6,16,Face_32,item_2_2,Garden,green,Incongruent,1,h,1,1270.74,2
2816636,Photo,6,40,Face_32,item_2_2,Garden,green,Incongruent,1,h,1,620.98,5
2816641,Photo,6,18,Face_11,item_2_2,Garden,green,Congruent,1,h,1,632,7
2816644,Schematic,6,30,Face_37,item_2_2,Garden,green,Congruent,1,h,1,642.835,6
2816648,Schematic,6,18,Face_37,item_2_2,Garden,green,Congruent,1,h,1,708.385,3
2816649,Photo,6,42,Face_11,item_2_2,Garden,green,Congruent,1,h,1,667.445,4
2816656,Photo,6,52,Face_32,item_2_2,Garden,green,Incongruent,1,h,1,1100,5
2816660,Photo,6,31,Face_5,item_2_2,Garden,green,Incongruent,1,h,1,527.14,4
2816661,Schematic,6,33,Face_37,item_2_2,Garden,green,Incongruent,1,h,1,557,4
2816665,Schematic,6,53,Face_37,item_2_2,Garden,green,Incongruent,1,h,1,943.78,4
2816673,Photo,6,5,Face_11,item_2_2,Garden,green,Congruent,1,h,1,792,6
2816681,Photo,6,64,Face_5,item_2_2,Garden,green,Incongruent,1,h,1,741.7199998,7
2816687,Schematic,6,45,Face_37,item_2_2,Garden,green,Congruent,1,h,1,1082,7
2816698,Photo,6,15,Face_5,item_2_2,Garden,green,Incongruent,1,h,1,738.465,5
2816709,Schematic,6,50,Face_37,item_2_2,Garden,green,Incongruent,1,h,1,733,4
2816801,Schematic,6,61,Face_37,item_2_2,Garden,green,Incongruent,1,h,1,540.52,6
2816804,Schematic,6,21,Face_37,item_2_2,Garden,green,Incongruent,1,h,1,686,2
2816805,Schematic,6,42,Face_37,item_2_2,Garden,green,Incongruent,1,h,1,713.58,5
2816822,Photo,6,31,Face_5,item_2_2,Garden,green,Incongruent,1,space,0,557.28,3
2816866,Photo,6,52,Face_11,item_2_2,Garden,green,Congruent,1,h,1,782.835,6
2817018,Schematic,6,28,Face_37,item_2_2,Garden,green,Incongruent,1,h,1,1404,6
2816557,Photo,6,37,Face_29,item_2_3,Garden,red,Congruent,1,h,1,589.465,5
2816574,Photo,6,36,Face_29,item_2_3,Garden,red,Congruent,1,h,1,636.67,6
2816632,Photo,6,21,Face_29,item_2_3,Garden,red,Congruent,1,space,0,610.53,4
2816640,Photo,6,5,Face_29,item_2_3,Garden,red,Congruent,1,h,1,598.155,4
2816659,Photo,6,20,Face_29,item_2_3,Garden,red,Congruent,1,h,1,2135.135,5
2816701,Photo,6,64,Face_29,item_2_3,Garden,red,Congruent,1,h,1,1025.435,7
2816799,Photo,6,18,Face_29,item_2_3,Garden,red,Congruent,1,h,1,850.19,6
2816557,Photo,6,9,Face_21,item_2_4,Garden,yellow,Congruent,1,h,1,1217.025,7
2816574,Photo,6,62,Face_21,item_2_4,Garden,yellow,Congruent,1,h,1,940.995,6
2816632,Photo,6,35,Face_21,item_2_4,Garden,yellow,Congruent,1,h,1,902.655,3
2816640,Photo,6,38,Face_21,item_2_4,Garden,yellow,Congruent,1,h,1,901.64,3
2816659,Photo,6,47,Face_21,item_2_4,Garden,yellow,Congruent,1,h,1,847.8350001,4
2816701,Photo,6,37,Face_21,item_2_4,Garden,yellow,Congruent,1,h,1,780.205,4
2816799,Photo,6,37,Face_21,item_2_4,Garden,yellow,Congruent,1,h,1,742.01,9
2816557,Photo,6,19,Face_16,item_20_1,Kitchen,blue,Congruent,1,space,1,578.455,6
2816574,Photo,6,64,Face_16,item_20_1,Kitchen,blue,Congruent,1,space,1,751.31,2
2816632,Photo,6,65,Face_16,item_20_1,Kitchen,blue,Congruent,1,space,1,686.83,4
2816640,Photo,6,32,Face_16,item_20_1,Kitchen,blue,Congruent,1,space,1,616.395,5
2816659,Photo,6,55,Face_16,item_20_1,Kitchen,blue,Congruent,1,space,1,640.4250001,4
2816701,Photo,6,51,Face_16,item_20_1,Kitchen,blue,Congruent,1,space,1,658.69,5
2816799,Photo,6,32,Face_16,item_20_1,Kitchen,blue,Congruent,1,space,1,1076.28,3
2816557,Photo,6,31,Face_30,item_20_2,Kitchen,green,Incongruent,1,space,1,863.985,4
2816574,Photo,6,52,Face_30,item_20_2,Kitchen,green,Incongruent,1,space,1,769.945,6
2816632,Photo,6,7,Face_30,item_20_2,Kitchen,green,Incongruent,1,space,1,732.68,6
2816640,Photo,6,45,Face_30,item_20_2,Kitchen,green,Incongruent,1,space,1,640.145,6
2816659,Photo,6,72,Face_30,item_20_2,Kitchen,green,Incongruent,1,space,1,1228.125,4
2816701,Photo,6,17,Face_30,item_20_2,Kitchen,green,Incongruent,1,space,1,828.78,6
2816799,Photo,6,13,Face_30,item_20_2,Kitchen,green,Incongruent,1,space,1,504.415,4
2816545,Photo,6,4,Face_1,item_20_3,Kitchen,red,Congruent,1,h,0,969.51,9
2816555,Photo,6,43,Face_1,item_20_3,Kitchen,red,Congruent,1,space,1,544.04,5
2816558,Schematic,6,72,Face_37,item_20_3,Kitchen,red,Incongruent,1,space,1,869.695,5
2816562,Schematic,6,37,Face_37,item_20_3,Kitchen,red,Congruent,1,space,1,551.12,6
2816564,Schematic,6,19,Face_37,item_20_3,Kitchen,red,Incongruent,1,space,1,703,4
2816567,Schematic,6,20,Face_37,item_20_3,Kitchen,red,Incongruent,1,space,1,603.1600001,7
2816569,Photo,6,70,Face_10,item_20_3,Kitchen,red,Incongruent,1,space,1,577.295,7
2816570,Schematic,6,21,Face_37,item_20_3,Kitchen,red,Incongruent,1,space,1,865.815,5
2816571,Schematic,6,56,Face_37,item_20_3,Kitchen,red,Incongruent,1,space,1,498.7649999,8
2816572,Photo,6,38,Face_6,item_20_3,Kitchen,red,Congruent,1,space,1,565,3
2816573,Photo,6,42,Face_10,item_20_3,Kitchen,red,Incongruent,1,space,1,985.8499999,1
2816575,Schematic,6,6,Face_37,item_20_3,Kitchen,red,Incongruent,1,space,1,734.31,4
2816580,Photo,6,51,Face_10,item_20_3,Kitchen,red,Incongruent,1,space,1,719.1900001,5
2816587,Photo,6,49,Face_6,item_20_3,Kitchen,red,Congruent,1,space,1,470.075,9
2816604,Schematic,6,17,Face_37,item_20_3,Kitchen,red,Incongruent,1,h,0,646,6
2816610,Photo,6,33,Face_6,item_20_3,Kitchen,red,Congruent,1,space,1,514.105,3
2816616,Schematic,6,15,Face_37,item_20_3,Kitchen,red,Incongruent,1,space,1,747.265,6
2816619,Schematic,6,20,Face_37,item_20_3,Kitchen,red,Incongruent,1,space,1,820.02,7
2816622,Schematic,6,8,Face_37,item_20_3,Kitchen,red,Incongruent,1,space,1,1308.19,4
2816629,Schematic,6,64,Face_37,item_20_3,Kitchen,red,Congruent,1,space,1,569.47,6
2816631,Schematic,6,61,Face_37,item_20_3,Kitchen,red,Incongruent,1,space,1,706.98,5
2816633,Schematic,6,25,Face_37,item_20_3,Kitchen,red,Incongruent,1,space,1,973,8
2816635,Photo,6,64,Face_6,item_20_3,Kitchen,red,Congruent,1,space,1,658.935,3
2816636,Photo,6,11,Face_6,item_20_3,Kitchen,red,Congruent,1,space,1,685.025,7
2816641,Photo,6,50,Face_1,item_20_3,Kitchen,red,Congruent,1,space,1,715,7
2816644,Schematic,6,65,Face_37,item_20_3,Kitchen,red,Incongruent,1,space,1,596.005,2
2816647,Photo,6,61,Face_10,item_20_3,Kitchen,red,Incongruent,1,space,1,703.48,3
2816648,Schematic,6,58,Face_37,item_20_3,Kitchen,red,Incongruent,1,space,1,635.84,3
2816649,Photo,6,8,Face_1,item_20_3,Kitchen,red,Congruent,1,space,1,608.455,4
2816656,Photo,6,4,Face_6,item_20_3,Kitchen,red,Congruent,1,space,1,769,7
2816660,Photo,6,19,Face_10,item_20_3,Kitchen,red,Incongruent,1,space,1,642.885,5
2816661,Schematic,6,23,Face_37,item_20_3,Kitchen,red,Incongruent,1,space,1,564,9
2816665,Schematic,6,61,Face_37,item_20_3,Kitchen,red,Congruent,1,space,1,707.55,4
2816673,Photo,6,47,Face_1,item_20_3,Kitchen,red,Congruent,1,space,1,639,6
2816681,Photo,6,11,Face_10,item_20_3,Kitchen,red,Incongruent,1,space,1,1224.935,6
2816687,Schematic,6,57,Face_37,item_20_3,Kitchen,red,Incongruent,1,space,1,2444,3
2816698,Photo,6,29,Face_10,item_20_3,Kitchen,red,Incongruent,1,space,1,598.73,5
2816709,Schematic,6,9,Face_37,item_20_3,Kitchen,red,Congruent,1,space,1,512,6
2816801,Schematic,6,3,Face_37,item_20_3,Kitchen,red,Congruent,1,space,1,488.125,5
2816804,Schematic,6,53,Face_37,item_20_3,Kitchen,red,Incongruent,1,space,1,707,2
2816805,Schematic,6,4,Face_37,item_20_3,Kitchen,red,Congruent,1,space,1,626.705,4
2816822,Photo,6,7,Face_10,item_20_3,Kitchen,red,Incongruent,1,space,1,601.785,4
2816866,Photo,6,18,Face_1,item_20_3,Kitchen,red,Congruent,1,space,1,1092.05,8
2817018,Schematic,6,57,Face_37,item_20_3,Kitchen,red,Congruent,1,space,1,560,2
2816545,Photo,6,7,Face_19,item_20_4,Kitchen,yellow,Incongruent,1,space,1,824.655,7
2816555,Photo,6,12,Face_19,item_20_4,Kitchen,yellow,Incongruent,1,space,1,791.46,4
2816558,Schematic,6,31,Face_37,item_20_4,Kitchen,yellow,Incongruent,1,space,1,801.005,4
2816562,Schematic,6,15,Face_37,item_20_4,Kitchen,yellow,Congruent,1,space,1,450.015,4
2816564,Schematic,6,59,Face_37,item_20_4,Kitchen,yellow,Congruent,1,space,1,662,6
